ROW_ID,temp_cpu,temp_h,temp_p,humidity,pressure,pitch,roll,yaw,mag_x,mag_y,mag_z,accel_x,accel_y,accel_z,gyro_x,gyro_y,gyro_z,reset,time_stamp
1,35.51,26.85,26.03,60.50,1021.76,359.05,359.86,258.99,-3.496344,23.459245,69.476236,0.015697,-0.002796,1.033065,0.000067,-0.002933,0.000165,20,2015-08-20 23:58:30
2,35.44,26.85,26.03,60.48,1021.75,359.17,359.84,259.67,-3.378404,24.551461,72.804552,0.015458,-0.003027,1.033115,0.000064,-0.003212,-0.000088,0,2015-08-20 23:58:40
3,35.29,26.86,26.03,60.43,1021.74,359.09,359.83,260.03,-3.305794,24.791753,72.706349,0.015557,-0.003000,1.033137,0.000075,0.001377,0.000236,0,2015-08-20 23:58:51
4,35.31,26.86,26.02,60.46,1021.73,359.00,359.83,259.99,-3.348799,24.750332,72.852824,0.015229,-0.002994,1.033215,-0.000161,-0.004260,0.000231,0,2015-08-20 23:59:00
5,35.20,26.87,26.02,60.45,1021.71,358.88,359.83,260.18,-3.181526,24.511328,73.353489,0.015376,-0.002914,1.033180,-0.000129,-0.000401,0.000372,0,2015-08-20 23:59:10
6,35.19,26.86,26.01,60.41,1021.70,359.09,359.83,259.80,-3.417792,24.675047,73.316864,0.015408,-0.002968,1.033342,-0.000276,-0.000147,0.000328,0,2015-08-20 23:59:21
7,35.18,26.84,26.00,60.25,1021.72,359.01,359.83,259.93,-3.349212,24.626685,73.073295,0.015350,-0.003048,1.033358,-0.000154,-0.002341,0.000268,0,2015-08-20 23:59:30
8,35.19,26.83,25.99,60.42,1021.73,359.08,359.84,259.79,-3.381261,24.620474,73.575225,0.015189,-0.003097,1.033306,0.000188,-0.001620,0.000287,0,2015-08-20 23:59:40
9,35.28,26.83,25.98,60.19,1021.70,358.96,359.82,260.18,-3.147849,24.432080,73.446467,0.015451,-0.003035,1.033293,-0.000140,-0.005110,0.000312,0,2015-08-20 23:59:51
10,35.19,26.82,25.98,60.44,1021.70,358.97,359.83,260.32,-3.195352,24.667680,72.958639,0.015323,-0.002962,1.033387,0.000088,-0.001777,0.000219,0,2015-08-21 00:00:00
11,35.16,26.82,25.97,60.22,1021.71,359.00,359.84,260.33,-3.153552,24.643210,72.627442,0.015381,-0.003061,1.033299,0.000116,-0.000928,0.000132,0,2015-08-21 00:00:10
12,35.22,26.81,25.96,60.27,1021.71,359.05,359.84,260.54,-3.034260,24.522119,73.103316,0.015344,-0.002910,1.033342,0.000185,-0.001455,0.000208,0,2015-08-21 00:00:21
13,35.16,26.79,25.95,60.35,1021.68,359.05,359.83,260.64,-3.004679,24.426031,73.092046,0.015435,-0.003060,1.033424,-0.000120,-0.003534,0.000101,0,2015-08-21 00:00:30
14,35.25,26.78,25.94,60.18,1021.68,359.04,359.82,260.15,-3.170961,24.406614,72.785075,0.015318,-0.003039,1.033418,-0.000142,-0.002145,0.000150,0,2015-08-21 00:00:40
15,35.15,26.77,25.93,60.25,1021.69,359.06,359.83,260.12,-3.244038,24.381519,73.062767,0.015356,-0.002983,1.033474,-0.000175,-0.003213,0.000365,0,2015-08-21 00:00:51
16,35.11,26.77,25.92,60.22,1021.68,359.12,359.82,260.03,-3.251370,24.260559,73.192598,0.015220,-0.003077,1.033503,-0.000245,-0.000409,0.000328,0,2015-08-21 00:01:00
17,35.13,26.77,25.91,60.12,1021.68,359.09,359.82,260.17,-3.155604,24.324241,73.332255,0.015302,-0.002967,1.033390,-0.000197,-0.002256,0.000519,0,2015-08-21 00:01:10
18,35.14,26.76,25.90,60.22,1021.69,359.01,359.83,259.94,-3.318019,24.492361,73.319657,0.015177,-0.003026,1.033368,-0.000052,-0.001164,0.000362,0,2015-08-21 00:01:21
19,35.13,26.75,25.89,60.31,1021.71,359.02,359.84,260.12,-3.206067,24.530110,73.098764,0.015261,-0.003009,1.033622,0.000090,0.000259,-0.000022,0,2015-08-21 00:01:30
20,35.13,26.73,25.88,60.32,1021.69,359.13,359.82,260.37,-3.098253,24.431111,73.199162,0.015168,-0.003023,1.033481,-0.000182,-0.000298,-0.000029,0,2015-08-21 00:01:40
21,35.02,26.73,25.88,60.13,1021.70,359.12,359.84,259.76,-3.435221,24.629206,73.130794,0.015245,-0.002949,1.033513,0.000230,-0.001867,-0.000109,0,2015-08-21 00:01:51
22,35.09,26.73,25.87,60.20,1021.69,359.10,359.82,259.91,-3.357536,24.717385,73.087680,0.015248,-0.003078,1.033538,-0.000134,-0.003011,0.000298,0,2015-08-21 00:02:00
23,35.06,26.70,25.86,60.18,1021.70,359.15,359.83,259.77,-3.407111,24.728521,73.024572,0.015252,-0.003009,1.033468,-0.000099,0.000045,0.000091,0,2015-08-21 00:02:10
24,35.11,26.71,25.85,60.11,1021.72,359.13,359.84,259.97,-3.345507,24.876470,73.152491,0.015303,-0.002995,1.033482,0.000350,-0.000861,0.000032,0,2015-08-21 00:02:21
25,35.00,26.70,25.84,60.11,1021.71,359.16,359.84,259.71,-3.485305,24.840918,73.139562,0.015260,-0.003084,1.033584,-0.000096,0.001542,0.000029,0,2015-08-21 00:02:30
26,35.02,26.69,25.84,60.07,1021.72,359.15,359.85,260.21,-3.225585,24.864142,73.079026,0.015218,-0.003015,1.033430,0.000285,-0.001213,0.000016,0,2015-08-21 00:02:40
27,35.07,26.69,25.83,60.17,1021.73,359.13,359.85,260.50,-3.160446,24.994978,73.041150,0.015167,-0.003092,1.033513,0.000283,-0.002009,-0.000076,0,2015-08-21 00:02:51
28,35.03,26.65,25.82,60.13,1021.69,359.14,359.85,260.01,-3.294139,24.800981,73.291482,0.015332,-0.003068,1.033593,0.000219,-0.001135,-0.000173,0,2015-08-21 00:03:00
29,35.06,26.66,25.82,60.13,1021.71,359.13,359.83,260.10,-3.342692,24.848513,73.113447,0.015238,-0.002991,1.033436,-0.000026,0.000378,0.000130,0,2015-08-21 00:03:10
30,35.06,26.66,25.81,60.07,1021.72,359.14,359.83,260.15,-3.235314,24.723160,73.003025,0.015102,-0.002965,1.033515,0.000084,0.000004,0.000279,0,2015-08-21 00:03:21
31,35.01,26.66,25.80,60.08,1021.70,359.11,359.83,260.57,-3.040154,24.559248,72.991627,0.015228,-0.003145,1.033485,-0.000030,-0.001867,0.000000,0,2015-08-21 00:03:30
32,35.05,26.64,25.79,59.93,1021.72,359.13,359.83,259.67,-3.502216,24.639615,72.985479,0.015365,-0.003099,1.033448,0.000247,0.000814,0.000142,0,2015-08-21 00:03:40
33,34.98,26.64,25.79,60.09,1021.71,359.11,359.84,259.99,-3.291426,24.690783,73.079931,0.015266,-0.002983,1.033562,0.000012,0.002032,0.000021,0,2015-08-21 00:03:51
34,34.92,26.63,25.78,60.24,1021.71,359.11,359.83,260.39,-3.130553,24.622771,72.917183,0.015182,-0.003048,1.033514,-0.000091,-0.000522,-0.000022,0,2015-08-21 00:04:00
35,34.94,26.63,25.78,60.08,1021.72,359.15,359.83,260.14,-3.284057,24.742225,72.831583,0.015289,-0.002869,1.033405,-0.000045,0.001636,0.000183,0,2015-08-21 00:04:10
36,34.96,26.63,25.77,59.82,1021.72,359.18,359.85,260.30,-3.114061,24.405496,72.758547,0.015164,-0.002997,1.033655,0.000317,0.000454,-0.000116,0,2015-08-21 00:04:21
37,35.00,26.61,25.76,60.03,1021.73,359.05,359.85,260.07,-3.312936,24.578348,73.012013,0.015144,-0.002978,1.033423,0.000179,-0.001839,-0.000073,0,2015-08-21 00:04:30
38,34.96,26.60,25.75,59.98,1021.72,359.16,359.83,259.70,-3.478341,24.851265,73.351843,0.015188,-0.003025,1.033405,-0.000365,0.000037,0.000337,0,2015-08-21 00:04:40
39,34.97,26.60,25.75,59.90,1021.73,359.15,359.82,259.96,-3.312434,24.658098,73.556204,0.015190,-0.003007,1.033588,-0.000293,-0.000606,0.000314,0,2015-08-21 00:04:51
40,35.01,26.59,25.74,59.91,1021.74,359.09,359.82,260.13,-3.283788,24.637335,73.177403,0.015119,-0.003113,1.033494,-0.000052,-0.001451,0.000171,0,2015-08-21 00:05:00
41,34.92,26.58,25.74,59.94,1021.72,359.05,359.82,259.71,-3.444731,24.673740,73.016255,0.015233,-0.002964,1.033500,0.000095,-0.000297,0.000116,0,2015-08-21 00:05:10
42,34.93,26.59,25.73,59.99,1021.73,359.16,359.83,260.15,-3.257883,24.662726,73.299347,0.015301,-0.003135,1.033551,-0.000089,0.000024,0.000190,0,2015-08-21 00:05:21
43,34.94,26.58,25.72,59.84,1021.73,359.17,359.82,260.15,-3.272126,24.820475,73.151725,0.015139,-0.003092,1.033396,0.000002,0.000517,0.000047,0,2015-08-21 00:05:30
44,34.94,26.58,25.72,59.85,1021.73,359.15,359.84,259.99,-3.327428,24.897233,73.315035,0.015157,-0.003210,1.033499,0.000086,0.000003,-0.000040,0,2015-08-21 00:05:40
45,34.96,26.56,25.71,59.90,1021.73,359.17,359.82,259.62,-3.513276,24.744618,73.335893,0.015154,-0.003158,1.033516,-0.000056,-0.001283,0.000250,0,2015-08-21 00:05:51
46,34.92,26.56,25.71,60.00,1021.72,359.14,359.82,259.83,-3.451276,24.844250,73.160438,0.015175,-0.003165,1.033597,-0.000044,0.000397,0.000102,0,2015-08-21 00:06:00
47,34.93,26.57,25.70,59.82,1021.74,359.10,359.82,259.64,-3.484871,24.761796,73.171889,0.015204,-0.003183,1.033417,-0.000172,0.001779,0.000072,0,2015-08-21 00:06:10
48,34.88,26.56,25.70,59.93,1021.73,359.23,359.82,259.57,-3.524692,24.577030,73.338869,0.015140,-0.003146,1.033509,-0.000052,0.001086,0.000047,0,2015-08-21 00:06:21
49,34.86,26.56,25.70,60.04,1021.74,359.17,359.82,259.46,-3.530657,24.727243,73.506629,0.015259,-0.003085,1.033490,0.000127,-0.001058,0.000107,0,2015-08-21 00:06:30
50,34.87,26.57,25.70,60.00,1021.75,359.15,359.83,259.45,-3.563086,24.508894,73.486748,0.015239,-0.003150,1.033436,-0.000123,0.000917,0.000156,0,2015-08-21 00:06:40
51,34.92,26.55,25.69,59.90,1021.75,359.07,359.82,259.47,-3.565600,24.751896,72.944466,0.015203,-0.003061,1.033401,-0.000184,-0.003282,0.000228,0,2015-08-21 00:06:51
52,34.90,26.57,25.69,59.98,1021.75,359.13,359.81,259.80,-3.415048,24.704310,73.345351,0.015323,-0.003018,1.033394,-0.000273,-0.002238,0.000541,0,2015-08-21 00:07:00
53,34.87,26.56,25.69,59.98,1021.73,359.14,359.81,259.76,-3.450832,24.825058,73.077189,0.015330,-0.003087,1.033381,-0.000406,-0.001705,0.000402,0,2015-08-21 00:07:20
54,34.89,26.55,25.70,59.99,1021.73,359.20,359.82,259.77,-3.452835,24.646913,73.096123,0.015337,-0.003174,1.033340,-0.000019,-0.000358,0.000137,0,2015-08-21 00:07:30
55,34.93,26.56,25.70,60.21,1021.73,359.11,359.81,259.24,-3.621878,24.447662,73.058099,0.015303,-0.003053,1.033352,-0.000156,0.001437,0.000185,0,2015-08-21 00:07:41
56,34.92,26.55,25.70,60.24,1021.74,359.14,359.81,259.20,-3.601164,24.397826,73.344138,0.015309,-0.003066,1.033269,-0.000224,0.000772,0.000040,0,2015-08-21 00:07:50
57,34.88,26.55,25.70,60.15,1021.75,359.08,359.82,259.30,-3.615151,24.535700,73.288586,0.015171,-0.003115,1.033431,-0.000258,-0.001438,0.000164,0,2015-08-21 00:08:00
58,34.92,26.55,25.70,60.23,1021.76,359.12,359.81,259.31,-3.631793,24.607065,73.335730,0.015201,-0.003043,1.033456,-0.000389,-0.000674,0.000328,0,2015-08-21 00:08:11
59,34.89,26.55,25.70,60.28,1021.76,359.16,359.81,258.93,-3.743983,24.327542,72.971609,0.015193,-0.003125,1.033403,-0.000352,0.000882,0.000213,0,2015-08-21 00:08:20
60,34.91,26.55,25.70,60.36,1021.75,359.25,359.84,259.25,-3.573684,24.380895,73.326551,0.015150,-0.003082,1.033438,0.000071,-0.000059,0.000053,0,2015-08-21 00:08:30
61,34.88,26.55,25.70,60.38,1021.75,359.16,359.84,259.28,-3.589602,24.481733,72.899598,0.015150,-0.003092,1.033434,-0.000002,-0.000809,-0.000032,0,2015-08-21 00:08:41
62,34.96,26.56,25.70,60.61,1021.74,359.11,359.84,259.58,-3.460915,24.445556,72.787954,0.015181,-0.003027,1.033456,0.000029,-0.001822,0.000145,0,2015-08-21 00:08:50
63,34.93,26.56,25.71,60.38,1021.77,359.17,359.80,259.65,-3.540168,24.784060,72.872217,0.015152,-0.003147,1.033535,-0.000230,0.001421,0.000198,0,2015-08-21 00:09:00
64,34.90,26.56,25.71,60.70,1021.74,359.14,359.82,259.46,-3.562688,24.691184,73.037698,0.015244,-0.003032,1.033485,-0.000139,0.001252,0.000138,0,2015-08-21 00:09:11
65,34.91,26.56,25.71,60.52,1021.77,359.15,359.83,259.86,-3.270646,24.389344,73.082457,0.015307,-0.002960,1.033550,-0.000073,-0.001873,0.000221,0,2015-08-21 00:09:20
66,34.85,26.57,25.71,60.65,1021.76,359.13,359.82,260.60,-2.991254,24.316823,73.248350,0.015256,-0.003025,1.033530,-0.000217,0.001611,0.000236,0,2015-08-21 00:09:30
67,34.91,26.55,25.72,60.57,1021.75,359.09,359.80,260.16,-3.229987,24.602101,72.890805,0.015252,-0.002954,1.033362,-0.000164,-0.000295,0.000063,0,2015-08-21 00:09:41
68,34.92,26.56,25.72,60.61,1021.75,359.16,359.82,260.30,-3.167006,24.495693,72.980594,0.015314,-0.002996,1.033499,-0.000339,0.000466,0.000086,0,2015-08-21 00:09:50
69,34.88,26.55,25.72,60.56,1021.74,359.15,359.82,260.25,-3.238394,24.851017,73.012234,0.015294,-0.002953,1.033344,-0.000308,-0.002010,0.000467,0,2015-08-21 00:10:00
70,34.91,26.56,25.72,60.78,1021.73,359.12,359.82,260.13,-3.279248,24.734220,73.051123,0.015207,-0.002977,1.033537,-0.000246,-0.001901,0.000349,0,2015-08-21 00:10:11
71,34.92,26.57,25.73,60.84,1021.74,359.11,359.82,260.02,-3.339609,24.942493,73.333331,0.015212,-0.002899,1.033474,-0.000260,0.000050,0.000161,0,2015-08-21 00:10:20
72,34.89,26.59,25.73,60.81,1021.75,359.13,359.82,260.00,-3.368861,25.078011,73.519051,0.015276,-0.003104,1.033385,-0.000313,-0.000525,0.000072,0,2015-08-21 00:10:30
73,34.94,26.59,25.73,60.59,1021.76,359.15,359.82,259.82,-3.459664,24.972534,73.440097,0.015228,-0.003076,1.033477,-0.000166,-0.002623,0.000144,0,2015-08-21 00:10:41
74,34.94,26.58,25.74,60.78,1021.76,359.11,359.81,259.92,-3.420852,24.988387,73.110598,0.015256,-0.003012,1.033509,-0.000410,-0.001557,0.000141,0,2015-08-21 00:10:50
75,34.95,26.60,25.74,60.90,1021.77,359.16,359.82,260.16,-3.201389,24.599116,73.048005,0.015291,-0.002876,1.033395,-0.000242,0.000860,0.000113,0,2015-08-21 00:11:00
76,34.92,26.57,25.74,60.83,1021.77,359.18,359.82,260.26,-3.154117,24.480193,73.000778,0.015098,-0.002950,1.033465,-0.000356,0.000686,0.000067,0,2015-08-21 00:11:11
77,34.93,26.58,25.75,60.84,1021.75,359.15,359.84,260.53,-3.027825,24.629670,73.151993,0.015256,-0.002944,1.033517,0.000250,-0.000441,-0.000090,0,2015-08-21 00:11:20
78,34.94,26.61,25.75,61.03,1021.76,359.13,359.83,260.58,-3.083137,24.753704,73.103740,0.015148,-0.002887,1.033374,-0.000001,-0.002016,0.000055,0,2015-08-21 00:11:30
79,34.93,26.61,25.75,60.85,1021.76,359.07,359.82,260.24,-3.224210,24.631191,72.960464,0.015192,-0.003095,1.033457,-0.000071,-0.001203,0.000039,0,2015-08-21 00:11:41
80,34.96,26.63,25.75,61.06,1021.75,359.15,359.83,259.85,-3.375890,24.699032,73.059262,0.015232,-0.003026,1.033464,-0.000115,0.000422,0.000081,0,2015-08-21 00:11:50
81,34.94,26.63,25.76,61.10,1021.74,359.08,359.84,259.95,-3.321684,24.543587,73.425526,0.015273,-0.002874,1.033455,-0.000163,0.001615,0.000027,0,2015-08-21 00:12:00
82,34.94,26.61,25.76,60.91,1021.74,359.09,359.83,259.86,-3.351647,24.682927,73.359149,0.015205,-0.002950,1.033451,0.000058,0.000279,-0.000142,0,2015-08-21 00:12:11
83,34.89,26.61,25.76,61.06,1021.75,359.14,359.84,260.13,-3.249293,24.611752,72.869188,0.015222,-0.002984,1.033497,-0.000223,0.001051,-0.000069,0,2015-08-21 00:12:20
84,34.93,26.63,25.76,61.26,1021.75,359.11,359.82,259.76,-3.522202,25.031838,72.710332,0.015155,-0.002994,1.033485,-0.000249,-0.000267,-0.000077,0,2015-08-21 00:12:30
85,34.96,26.63,25.77,61.29,1021.74,359.18,359.84,260.25,-3.190940,24.840586,72.657701,0.015186,-0.002845,1.033465,-0.000056,-0.000943,0.000032,0,2015-08-21 00:12:41
86,34.99,26.63,25.77,61.33,1021.75,359.11,359.83,260.38,-3.124654,24.601844,72.805952,0.015247,-0.003040,1.033482,-0.000329,-0.000227,0.000016,0,2015-08-21 00:12:50
87,34.98,26.63,25.77,61.14,1021.76,359.14,359.82,260.76,-2.963974,24.566830,73.350127,0.015083,-0.002996,1.033490,-0.000150,0.001021,0.000209,0,2015-08-21 00:13:00
88,34.92,26.63,25.78,61.30,1021.75,359.07,359.82,260.80,-2.929057,24.723130,73.462586,0.015174,-0.003066,1.033499,-0.000135,-0.001816,0.000196,0,2015-08-21 00:13:11
89,34.99,26.62,25.78,61.33,1021.77,359.13,359.82,261.49,-2.645843,24.720790,73.478273,0.015182,-0.002962,1.033564,-0.000221,-0.000051,0.000425,0,2015-08-21 00:13:21
90,34.99,26.64,25.79,61.37,1021.77,359.22,359.82,261.16,-2.803617,24.564996,73.727920,0.015070,-0.002957,1.033525,-0.000495,0.001668,0.000232,0,2015-08-21 00:13:30
91,35.07,26.65,25.79,61.18,1021.76,359.19,359.82,261.25,-2.769434,24.862381,73.483126,0.015168,-0.002975,1.033613,-0.000111,-0.001062,0.000333,0,2015-08-21 00:13:40
92,34.98,26.64,25.79,61.24,1021.77,359.02,359.82,261.31,-2.706430,24.536564,73.483311,0.015283,-0.002946,1.033495,-0.000201,0.000487,0.000125,0,2015-08-21 00:13:51
93,34.97,26.65,25.80,61.24,1021.78,359.18,359.86,260.84,-2.899856,24.492660,73.373261,0.015229,-0.002960,1.033333,-0.000013,0.000694,-0.000168,0,2015-08-21 00:14:00
94,35.04,26.66,25.80,61.24,1021.79,359.15,359.84,260.70,-2.975274,24.643054,73.369200,0.015327,-0.003000,1.033354,0.000066,0.000868,-0.000133,0,2015-08-21 00:14:11
95,35.03,26.66,25.81,61.40,1021.79,359.13,359.84,260.64,-3.041763,24.625990,73.381039,0.015282,-0.003059,1.033498,0.000383,-0.003496,-0.000270,0,2015-08-21 00:14:20
96,34.99,26.67,25.81,61.52,1021.79,359.13,359.85,260.35,-3.103058,24.550448,73.201788,0.015291,-0.002910,1.033496,0.000177,0.000049,-0.000275,0,2015-08-21 00:14:30
97,34.97,26.67,25.81,61.31,1021.80,359.10,359.85,260.58,-3.014133,24.687244,73.160198,0.015388,-0.002922,1.033505,0.000134,-0.001144,0.000075,0,2015-08-21 00:14:41
98,35.04,26.66,25.82,61.35,1021.79,359.09,359.83,260.39,-3.195708,24.898387,73.342552,0.015218,-0.003001,1.033410,0.000153,-0.000226,-0.000046,0,2015-08-21 00:14:50
99,35.02,26.67,25.82,61.44,1021.79,359.19,359.83,260.41,-3.161463,24.867613,73.328716,0.015279,-0.002984,1.033456,-0.000121,0.001340,-0.000005,0,2015-08-21 00:15:00
100,35.04,26.67,25.83,61.45,1021.78,359.16,359.84,260.78,-2.956006,24.932936,73.431447,0.015356,-0.003035,1.033390,0.000225,0.000803,-0.000062,0,2015-08-21 00:15:11
101,35.08,26.68,25.83,61.45,1021.77,359.13,359.83,260.79,-3.051571,24.881539,73.352888,0.015320,-0.003012,1.033405,0.000259,0.000069,-0.000150,0,2015-08-21 00:15:20
102,35.06,26.68,25.83,61.48,1021.78,359.13,359.83,260.31,-3.191805,24.802645,73.558998,0.015285,-0.002944,1.033526,-0.000096,0.001334,-0.000044,0,2015-08-21 00:15:30
103,35.04,26.69,25.84,61.42,1021.79,359.15,359.84,260.38,-3.118905,24.610084,73.303374,0.015293,-0.003028,1.033466,0.000329,0.000079,-0.000166,0,2015-08-21 00:15:41
104,35.09,26.69,25.84,61.33,1021.80,359.24,359.84,260.38,-3.161125,24.687646,73.145989,0.015394,-0.003026,1.033315,0.000020,-0.000001,0.000031,0,2015-08-21 00:15:50
105,35.10,26.70,25.84,61.45,1021.79,359.11,359.85,259.97,-3.347454,24.892964,73.457471,0.015327,-0.002994,1.033378,0.000397,-0.000338,-0.000347,0,2015-08-21 00:16:00
106,35.04,26.69,25.85,61.55,1021.78,359.15,359.85,259.78,-3.501569,25.178909,73.110982,0.015271,-0.002967,1.033439,0.000236,0.000191,-0.000153,0,2015-08-21 00:16:11
107,35.08,26.70,25.85,61.63,1021.77,359.17,359.84,260.22,-3.242874,25.162408,73.020208,0.015254,-0.003039,1.033434,0.000134,-0.000013,-0.000242,0,2015-08-21 00:16:20
108,35.15,26.71,25.85,61.61,1021.78,359.17,359.84,260.52,-3.093398,24.877553,73.191010,0.015334,-0.003000,1.033441,0.000016,0.000101,-0.000171,0,2015-08-21 00:16:30
109,35.04,26.72,25.86,61.59,1021.78,359.05,359.86,260.76,-3.002387,24.896889,73.279712,0.015271,-0.003017,1.033546,0.000328,-0.000358,-0.000234,0,2015-08-21 00:16:41
110,35.12,26.72,25.86,61.60,1021.79,359.15,359.84,260.36,-3.224049,24.962203,73.281679,0.015218,-0.002967,1.033662,0.000036,-0.002312,0.000062,0,2015-08-21 00:16:50
111,35.09,26.73,25.86,61.45,1021.80,359.09,359.84,260.69,-3.034764,25.009999,73.348366,0.015170,-0.002856,1.033438,0.000143,-0.001887,-0.000002,0,2015-08-21 00:17:00
112,35.07,26.74,25.87,61.60,1021.78,359.07,359.84,260.81,-2.999267,24.910074,73.085216,0.015205,-0.003035,1.033551,-0.000033,-0.000844,0.000007,0,2015-08-21 00:17:11
113,35.02,26.73,25.87,61.63,1021.78,359.16,359.83,260.75,-2.990609,24.942339,73.096946,0.015307,-0.003021,1.033434,0.000131,-0.000632,0.000009,0,2015-08-21 00:17:20
114,35.14,26.73,25.88,61.79,1021.75,359.19,359.84,260.79,-2.977293,24.582105,73.241933,0.015252,-0.002928,1.033468,-0.000088,0.000600,0.000136,0,2015-08-21 00:17:30
115,35.05,26.73,25.88,61.70,1021.77,359.15,359.83,260.91,-2.870492,24.745537,73.131406,0.015200,-0.003103,1.033517,-0.000158,0.000085,0.000091,0,2015-08-21 00:17:41
116,35.08,26.73,25.89,61.64,1021.80,359.19,359.84,260.90,-2.888436,24.575499,73.059441,0.015282,-0.002876,1.033415,0.000161,-0.001862,-0.000032,0,2015-08-21 00:17:50
117,35.14,26.75,25.89,61.63,1021.77,359.16,359.83,261.22,-2.786792,24.680676,73.119291,0.015144,-0.002864,1.033543,-0.000188,0.000652,0.000079,0,2015-08-21 00:18:00
118,35.11,26.74,25.89,61.54,1021.77,359.13,359.83,260.91,-2.891117,24.669880,73.117768,0.015284,-0.002916,1.033600,-0.000182,-0.002560,0.000136,0,2015-08-21 00:18:11
119,35.14,26.75,25.90,61.70,1021.77,359.12,359.81,261.21,-2.763304,24.769797,72.989681,0.015348,-0.002937,1.033577,-0.000413,0.000487,0.000256,0,2015-08-21 00:18:21
120,35.13,26.76,25.90,61.69,1021.75,359.12,359.82,260.67,-3.052855,24.467099,73.193113,0.015224,-0.002937,1.033577,-0.000265,-0.001610,0.000085,0,2015-08-21 00:18:30
121,35.10,26.75,25.90,61.60,1021.75,359.28,359.83,260.84,-2.874699,24.541937,72.800506,0.015312,-0.003012,1.033403,-0.000054,0.003736,0.000192,0,2015-08-21 00:18:41
122,35.18,26.77,25.91,61.64,1021.74,359.12,359.83,260.75,-2.991372,24.717764,72.703537,0.015302,-0.002976,1.033476,-0.000356,-0.001017,0.000030,0,2015-08-21 00:18:50
123,35.13,26.78,25.91,61.73,1021.75,359.06,359.82,260.97,-2.880889,24.643330,72.991651,0.015280,-0.002987,1.033548,-0.000224,-0.000783,0.000014,0,2015-08-21 00:19:00
124,35.17,26.77,25.91,61.67,1021.76,359.21,359.84,260.23,-3.139449,24.245681,73.019086,0.015255,-0.003059,1.033458,0.000240,0.002883,-0.000079,0,2015-08-21 00:19:11
125,35.13,26.76,25.92,61.82,1021.74,359.03,359.84,260.82,-2.869503,24.175759,73.004828,0.015337,-0.003004,1.033450,0.000125,-0.001814,-0.000137,0,2015-08-21 00:19:20
126,35.15,26.78,25.92,61.75,1021.75,359.24,359.84,260.58,-2.980529,24.272105,72.523894,0.015291,-0.002962,1.033509,0.000185,0.000809,-0.000260,0,2015-08-21 00:19:30
127,35.17,26.78,25.93,61.65,1021.75,359.09,359.85,261.05,-2.758334,24.155205,72.582841,0.015299,-0.002854,1.033560,0.000274,0.000244,-0.000141,0,2015-08-21 00:19:41
128,35.15,26.78,25.93,61.64,1021.75,359.12,359.84,260.36,-3.118456,24.182745,72.855187,0.015257,-0.003074,1.033404,0.000219,0.001501,-0.000120,0,2015-08-21 00:19:50
129,35.12,26.78,25.93,61.79,1021.76,359.22,359.83,260.10,-3.146700,24.160316,73.031959,0.015389,-0.002851,1.033456,-0.000108,0.000883,-0.000284,0,2015-08-21 00:20:00
130,35.14,26.80,25.94,61.83,1021.75,359.13,359.83,260.42,-3.016278,24.357182,72.926921,0.015344,-0.002845,1.033473,-0.000046,-0.000149,-0.000063,0,2015-08-21 00:20:11
131,35.20,26.80,25.94,61.77,1021.75,359.21,359.83,261.15,-2.754626,24.325886,72.887600,0.015289,-0.002969,1.033439,0.000036,-0.000166,0.000202,0,2015-08-21 00:20:21
132,35.16,26.81,25.95,61.81,1021.76,359.06,359.83,260.37,-3.156481,24.342544,73.034476,0.015390,-0.002942,1.033534,-0.000238,0.000615,0.000203,0,2015-08-21 00:20:30
133,35.24,26.78,25.95,61.76,1021.76,359.14,359.81,260.48,-3.015128,24.435347,73.272696,0.015388,-0.002951,1.033494,-0.000236,-0.000421,0.000479,0,2015-08-21 00:20:40
134,35.20,26.81,25.95,61.75,1021.77,359.18,359.83,261.31,-2.683284,24.272262,72.931555,0.015411,-0.002916,1.033354,-0.000283,0.001701,0.000282,0,2015-08-21 00:20:51
135,35.22,26.81,25.96,61.77,1021.76,359.10,359.84,260.70,-2.904459,24.131149,73.087268,0.015374,-0.002994,1.033250,-0.000163,0.000740,0.000178,0,2015-08-21 00:21:00
136,35.21,26.81,25.96,61.89,1021.77,359.11,359.82,261.01,-2.751886,24.235007,72.975113,0.015483,-0.002998,1.033244,-0.000446,0.001206,0.000116,0,2015-08-21 00:21:10
137,35.21,26.82,25.97,61.73,1021.77,359.13,359.83,260.46,-3.037969,24.214374,72.933261,0.015316,-0.002940,1.033488,-0.000127,-0.001303,-0.000146,0,2015-08-21 00:21:21
138,35.21,26.81,25.97,61.87,1021.78,359.09,359.84,260.33,-3.087365,24.273953,73.246862,0.015334,-0.002807,1.033555,-0.000100,0.000967,-0.000100,0,2015-08-21 00:21:30
139,35.19,26.82,25.97,61.78,1021.77,359.16,359.83,260.77,-2.898332,24.474021,73.391762,0.015325,-0.002994,1.033484,0.000158,-0.000188,0.000080,0,2015-08-21 00:21:41
140,35.19,26.81,25.98,61.78,1021.77,359.15,359.84,260.93,-2.836915,24.262535,73.203057,0.015421,-0.002998,1.033452,0.000012,-0.000130,-0.000181,0,2015-08-21 00:21:51
141,35.30,26.81,25.98,61.67,1021.77,359.18,359.83,260.79,-2.921154,24.456339,73.436281,0.015406,-0.002820,1.033473,-0.000140,-0.001223,0.000039,0,2015-08-21 00:22:00
142,35.22,26.82,25.99,61.58,1021.78,359.13,359.81,260.45,-3.049001,24.391863,72.967122,0.015427,-0.003102,1.033424,-0.000221,0.000816,0.000055,0,2015-08-21 00:22:11
143,35.24,26.82,25.99,61.81,1021.77,359.18,359.83,261.28,-2.648243,24.175850,73.035786,0.015401,-0.002987,1.033401,-0.000120,-0.000046,-0.000066,0,2015-08-21 00:22:20
144,35.31,26.82,25.99,61.78,1021.75,359.10,359.84,261.55,-2.526863,24.255683,72.691315,0.015457,-0.003068,1.033532,-0.000105,0.000584,0.000044,0,2015-08-21 00:22:30
145,35.30,26.83,26.00,61.74,1021.77,359.15,359.81,261.32,-2.698110,24.292208,73.071393,0.015426,-0.003039,1.033380,-0.000460,-0.001721,0.000231,0,2015-08-21 00:22:41
146,35.29,26.82,26.00,61.91,1021.79,359.14,359.79,261.17,-2.789538,24.765770,73.050799,0.015447,-0.002960,1.033385,-0.000612,-0.001828,0.000398,0,2015-08-21 00:22:50
147,35.23,26.85,26.00,61.67,1021.77,359.14,359.82,261.47,-2.645239,24.731591,72.960807,0.015318,-0.002966,1.033378,-0.000313,0.001184,0.000452,0,2015-08-21 00:23:00
148,35.31,26.86,26.01,61.82,1021.77,359.21,359.82,261.19,-2.758046,24.425529,72.900684,0.015356,-0.002846,1.033426,-0.000438,0.001393,0.000481,0,2015-08-21 00:23:11
149,35.26,26.85,26.01,61.87,1021.77,359.09,359.82,261.00,-2.827201,24.242362,72.696570,0.015481,-0.002951,1.033483,-0.000346,-0.001058,0.000165,0,2015-08-21 00:23:20
150,35.30,26.86,26.02,62.01,1021.77,359.13,359.84,260.68,-2.894276,24.213315,72.871246,0.015347,-0.002811,1.033611,-0.000178,-0.000263,0.000098,0,2015-08-21 00:23:30
151,35.25,26.85,26.02,61.96,1021.77,359.13,359.83,260.66,-2.961686,24.240551,72.843551,0.015187,-0.002877,1.033586,-0.000300,-0.000972,0.000252,0,2015-08-21 00:23:41
152,35.32,26.86,26.02,61.96,1021.77,359.16,359.83,260.68,-2.959344,24.427320,73.012570,0.015412,-0.002888,1.033447,-0.000119,0.000987,0.000320,0,2015-08-21 00:23:50
153,35.29,26.87,26.03,61.73,1021.78,359.09,359.84,260.49,-2.989209,24.147275,72.833029,0.015383,-0.002844,1.033550,-0.000109,0.000571,0.000200,0,2015-08-21 00:24:00
154,35.24,26.88,26.03,62.02,1021.78,359.11,359.84,260.39,-3.099128,24.193603,72.551722,0.015284,-0.002820,1.033409,0.000037,-0.000258,-0.000001,0,2015-08-21 00:24:11
155,35.26,26.89,26.04,62.04,1021.78,359.20,359.86,260.06,-3.198535,24.385931,72.757955,0.015468,-0.002811,1.033418,0.000340,0.000185,-0.000047,0,2015-08-21 00:24:20
156,35.35,26.89,26.04,62.03,1021.80,359.21,359.87,260.40,-3.095682,24.539789,72.759504,0.015347,-0.002862,1.033433,0.000355,0.000754,-0.000174,0,2015-08-21 00:24:30
157,35.32,26.89,26.04,61.84,1021.80,359.22,359.86,260.28,-3.099786,24.391899,72.762587,0.015364,-0.002942,1.033420,0.000233,0.002009,-0.000159,0,2015-08-21 00:24:41
158,35.35,26.88,26.05,61.89,1021.81,359.25,359.86,260.83,-2.874754,24.246215,72.536986,0.015365,-0.002930,1.033280,0.000241,0.002177,-0.000087,0,2015-08-21 00:24:50
159,35.33,26.88,26.05,61.86,1021.80,359.12,359.84,261.03,-2.750929,24.183118,72.623423,0.015417,-0.002957,1.033497,0.000007,0.000677,0.000012,0,2015-08-21 00:25:00
160,35.33,26.90,26.06,61.85,1021.81,359.19,359.85,260.56,-3.017357,24.421421,72.377236,0.015358,-0.002957,1.033590,0.000161,0.001305,-0.000220,0,2015-08-21 00:25:11
161,35.37,26.90,26.06,61.94,1021.81,359.15,359.85,260.22,-3.191562,24.437173,72.694519,0.015406,-0.002822,1.033401,0.000366,0.000889,-0.000341,0,2015-08-21 00:25:20
162,35.43,26.91,26.06,61.82,1021.81,359.17,359.86,260.72,-2.896680,24.406095,72.782975,0.015451,-0.002893,1.033494,0.000340,-0.000571,-0.000280,0,2015-08-21 00:25:31
163,35.38,26.90,26.07,61.80,1021.82,359.12,359.86,260.46,-3.052126,24.201939,72.700604,0.015341,-0.002788,1.033537,0.000354,-0.000774,-0.000324,0,2015-08-21 00:25:41
164,35.42,26.91,26.07,61.80,1021.81,359.14,359.86,260.52,-3.049882,24.508112,72.444626,0.015392,-0.002829,1.033450,0.000270,0.001462,-0.000358,0,2015-08-21 00:25:50
165,35.35,26.92,26.07,61.91,1021.82,359.17,359.86,259.77,-3.345025,24.419261,72.570812,0.015356,-0.002776,1.033305,0.000216,0.000123,-0.000329,0,2015-08-21 00:26:01
166,35.31,26.91,26.08,61.91,1021.84,359.20,359.84,260.29,-3.105766,24.449948,72.213160,0.015488,-0.002962,1.033369,0.000062,0.000648,-0.000134,0,2015-08-21 00:26:10
167,35.36,26.93,26.08,61.88,1021.84,359.12,359.84,260.41,-3.086786,24.362976,72.320580,0.015381,-0.002809,1.033460,-0.000001,-0.002410,0.000153,0,2015-08-21 00:26:20
168,35.39,26.92,26.09,61.83,1021.83,359.18,359.85,260.34,-3.084442,24.324990,72.436257,0.015289,-0.002840,1.033442,0.000038,-0.001514,0.000130,0,2015-08-21 00:26:31
169,35.35,26.94,26.09,61.85,1021.85,359.11,359.83,260.27,-3.122387,24.177224,72.514475,0.015505,-0.003023,1.033481,0.000014,-0.000924,0.000084,0,2015-08-21 00:26:40
170,35.35,26.94,26.09,61.92,1021.83,359.16,359.83,260.15,-3.178381,24.294687,72.352601,0.015438,-0.002819,1.033484,-0.000160,0.000438,0.000118,0,2015-08-21 00:26:50
171,35.42,26.95,26.10,62.02,1021.83,359.13,359.85,259.85,-3.367119,24.529326,72.542906,0.015390,-0.002907,1.033551,-0.000029,-0.000836,-0.000093,0,2015-08-21 00:27:01
172,35.35,26.95,26.10,62.04,1021.84,359.14,359.83,259.98,-3.282692,24.651767,72.738299,0.015385,-0.002818,1.033486,-0.000207,0.001770,0.000011,0,2015-08-21 00:27:10
173,35.37,26.94,26.10,61.96,1021.86,359.13,359.80,260.22,-3.262834,24.836226,72.444620,0.015456,-0.002887,1.033575,-0.000296,-0.000592,0.000314,0,2015-08-21 00:27:20
174,35.48,26.93,26.10,61.77,1021.85,359.06,359.81,259.79,-3.387588,24.618124,72.485812,0.015441,-0.002866,1.033564,-0.000340,-0.001245,0.000182,0,2015-08-21 00:27:31
175,35.39,26.94,26.10,61.70,1021.83,359.10,359.82,259.79,-3.323869,24.348304,72.395331,0.015397,-0.002826,1.033564,-0.000308,0.000129,0.000177,0,2015-08-21 00:27:40
176,35.40,26.93,26.11,61.93,1021.82,359.09,359.83,260.90,-2.833314,24.452290,72.583016,0.015379,-0.002856,1.033480,-0.000016,-0.000278,0.000233,0,2015-08-21 00:27:50
177,35.41,26.94,26.11,61.98,1021.85,359.15,359.83,261.09,-2.780329,24.254607,72.524262,0.015380,-0.002895,1.033543,-0.000188,0.002160,0.000337,0,2015-08-21 00:28:01
178,35.41,26.96,26.11,61.80,1021.83,359.10,359.83,260.43,-3.109404,24.325866,72.561267,0.015286,-0.002768,1.033512,-0.000057,-0.003364,0.000334,0,2015-08-21 00:28:10
179,35.44,26.94,26.11,61.84,1021.84,359.15,359.83,260.37,-3.083431,24.261890,72.475920,0.015338,-0.002743,1.033613,-0.000047,-0.001332,0.000292,0,2015-08-21 00:28:20
180,35.36,26.95,26.11,61.92,1021.83,359.13,359.81,260.17,-3.191532,24.372509,72.382588,0.015374,-0.002904,1.033503,-0.000445,-0.000563,0.000366,0,2015-08-21 00:28:31
181,35.38,26.95,26.11,61.73,1021.84,359.11,359.82,260.07,-3.254418,24.479024,72.084208,0.015430,-0.002899,1.033568,-0.000323,0.001005,0.000386,0,2015-08-21 00:28:40
182,35.42,26.95,26.11,61.91,1021.84,359.11,359.82,259.95,-3.308845,24.555039,72.100809,0.015493,-0.002851,1.033476,-0.000107,-0.001270,0.000434,0,2015-08-21 00:28:50
183,35.42,26.97,26.11,62.11,1021.82,359.14,359.82,260.29,-3.135560,24.517857,72.533410,0.015426,-0.002855,1.033417,-0.000354,0.000639,0.000199,0,2015-08-21 00:29:01
184,35.44,26.96,26.11,61.89,1021.85,359.20,359.84,260.08,-3.214371,24.258387,72.390305,0.015455,-0.002799,1.033374,-0.000080,0.001344,-0.000043,0,2015-08-21 00:29:10
185,35.41,26.96,26.11,61.98,1021.86,359.17,359.84,259.85,-3.327587,24.258193,72.603235,0.015508,-0.002996,1.033486,-0.000167,-0.001411,0.000041,0,2015-08-21 00:29:20
186,35.45,26.95,26.11,61.89,1021.86,359.19,359.87,259.85,-3.340133,24.321510,72.300678,0.015402,-0.002775,1.033477,0.000185,-0.001899,0.000060,0,2015-08-21 00:29:31
187,35.36,26.96,26.11,61.88,1021.87,359.10,359.84,260.00,-3.221837,24.280960,72.530725,0.015376,-0.002779,1.033427,-0.000165,-0.000091,0.000091,0,2015-08-21 00:29:40
188,35.47,26.96,26.12,61.98,1021.87,359.07,359.84,260.39,-3.055442,24.088381,72.857586,0.015370,-0.002771,1.033482,0.000177,-0.000732,0.000081,0,2015-08-21 00:29:50
189,35.39,26.96,26.12,61.89,1021.87,359.13,359.83,260.49,-2.944889,24.077496,72.682828,0.015493,-0.002965,1.033423,-0.000187,-0.000768,0.000229,0,2015-08-21 00:30:01
190,35.45,26.96,26.12,61.84,1021.87,359.21,359.85,260.62,-2.991364,24.300920,72.460998,0.015408,-0.002812,1.033541,0.000026,-0.001539,-0.000175,0,2015-08-21 00:30:10
191,35.42,26.97,26.12,61.81,1021.86,359.20,359.86,260.61,-2.950735,24.265492,72.238547,0.015299,-0.002807,1.033533,0.000165,-0.000050,-0.000178,0,2015-08-21 00:30:21
192,35.40,26.96,26.12,61.91,1021.86,359.16,359.86,260.73,-2.905841,24.345254,72.584184,0.015368,-0.002774,1.033482,0.000383,-0.000728,0.000169,0,2015-08-21 00:30:31
193,35.47,26.96,26.12,61.87,1021.87,359.08,359.85,260.47,-3.112190,24.583143,72.619339,0.015381,-0.002799,1.033602,0.000068,-0.000134,-0.000063,0,2015-08-21 00:30:40
194,35.44,26.95,26.12,61.74,1021.88,359.04,359.84,260.76,-2.935633,24.871381,72.841131,0.015491,-0.002747,1.033488,-0.000105,0.000997,0.000161,0,2015-08-21 00:30:51
195,35.43,26.95,26.12,61.87,1021.85,359.12,359.86,260.94,-2.969200,24.885901,72.397468,0.015341,-0.002730,1.033541,0.000294,0.000739,-0.000060,0,2015-08-21 00:31:01
196,35.42,26.96,26.12,61.80,1021.84,359.16,359.86,260.74,-3.033155,24.969703,72.617900,0.015394,-0.002825,1.033473,0.000024,-0.000614,-0.000114,0,2015-08-21 00:31:10
197,35.49,26.95,26.12,61.56,1021.85,359.14,359.84,260.81,-2.984110,25.056371,72.850194,0.015412,-0.002875,1.033619,-0.000234,-0.001102,0.000070,0,2015-08-21 00:31:21
198,35.47,26.95,26.11,61.89,1021.86,359.14,359.83,260.79,-3.013640,25.142193,72.625774,0.015412,-0.002698,1.033501,-0.000178,-0.000917,0.000253,0,2015-08-21 00:31:31
199,35.48,26.96,26.11,61.75,1021.88,359.16,359.84,261.02,-2.901084,24.898580,72.388194,0.015325,-0.002883,1.033506,0.000156,-0.000856,0.000032,0,2015-08-21 00:31:40
200,35.42,26.95,26.11,61.74,1021.89,359.21,359.84,260.84,-2.925288,24.731118,72.675146,0.015424,-0.002849,1.033332,-0.000066,0.001086,0.000197,0,2015-08-21 00:31:51
201,35.45,26.96,26.11,61.63,1021.86,359.08,359.81,261.30,-2.761740,24.915567,72.603610,0.015480,-0.002864,1.033521,-0.000218,-0.000426,0.000293,0,2015-08-21 00:32:01
202,35.48,26.97,26.11,61.79,1021.86,359.12,359.83,261.07,-2.861792,24.875303,72.670814,0.015544,-0.002926,1.033512,-0.000189,0.001219,0.000359,0,2015-08-21 00:32:10
203,35.50,26.97,26.11,61.72,1021.87,359.10,359.80,260.91,-2.942583,24.703716,72.685984,0.015468,-0.002801,1.033418,-0.000180,-0.001165,0.000357,0,2015-08-21 00:32:21
204,35.45,26.97,26.11,61.68,1021.85,359.10,359.82,260.98,-2.887564,24.880733,72.806446,0.015464,-0.002839,1.033354,-0.000373,0.000174,0.000322,0,2015-08-21 00:32:30
205,35.37,26.97,26.11,61.53,1021.86,359.13,359.82,260.65,-3.106776,25.060894,72.661740,0.015438,-0.002921,1.033490,-0.000236,0.000184,0.000388,0,2015-08-21 00:32:40
206,35.40,26.97,26.11,61.73,1021.87,359.15,359.82,260.87,-2.930884,24.910292,72.866271,0.015499,-0.002922,1.033407,-0.000304,-0.000443,0.000215,0,2015-08-21 00:32:51
207,35.53,26.97,26.11,61.49,1021.87,359.13,359.83,260.96,-2.863083,24.676614,72.766995,0.015405,-0.002853,1.033468,-0.000165,-0.000249,0.000043,0,2015-08-21 00:33:00
208,35.41,26.98,26.12,61.71,1021.88,359.11,359.81,261.48,-2.587512,24.460806,72.556763,0.015415,-0.002885,1.033433,-0.000224,-0.001606,0.000323,0,2015-08-21 00:33:10
209,35.43,26.96,26.12,61.68,1021.89,359.19,359.83,261.13,-2.846825,24.657587,72.339317,0.015485,-0.002957,1.033458,-0.000200,0.000012,0.000049,0,2015-08-21 00:33:21
210,35.48,26.97,26.12,61.45,1021.88,359.12,359.82,260.93,-2.884881,24.732058,72.524235,0.015494,-0.002901,1.033338,-0.000140,0.001098,0.000037,0,2015-08-21 00:33:30
211,35.39,26.95,26.11,61.52,1021.87,359.15,359.84,260.96,-2.896866,24.571840,72.658415,0.015329,-0.002903,1.033651,0.000050,0.000643,-0.000009,0,2015-08-21 00:33:40
212,35.38,26.97,26.11,61.69,1021.86,359.15,359.84,260.95,-2.770988,24.198946,72.660267,0.015547,-0.002951,1.033537,-0.000053,-0.000774,-0.000107,0,2015-08-21 00:33:51
213,35.36,26.96,26.11,61.53,1021.88,359.15,359.85,260.58,-3.028182,24.425717,72.787277,0.015550,-0.002946,1.033249,0.000115,0.000905,-0.000036,0,2015-08-21 00:34:00
214,35.46,26.96,26.11,61.50,1021.86,359.12,359.85,260.37,-3.086110,24.503093,72.876911,0.015450,-0.002869,1.033434,0.000341,-0.000632,0.000003,0,2015-08-21 00:34:10
215,35.52,26.97,26.12,61.43,1021.88,359.12,359.85,260.42,-3.065604,24.608960,73.242175,0.015483,-0.003102,1.033305,0.000245,-0.000533,-0.000178,0,2015-08-21 00:34:21
216,35.44,26.97,26.12,61.38,1021.89,359.14,359.84,260.81,-3.000739,24.956450,73.182352,0.015573,-0.002892,1.033301,0.000185,0.001387,-0.000067,0,2015-08-21 00:34:30
217,35.45,26.98,26.12,61.57,1021.88,359.14,359.84,260.67,-3.026912,24.968841,73.222323,0.015508,-0.002939,1.033291,0.000203,0.000209,-0.000125,0,2015-08-21 00:34:40
218,35.47,26.98,26.12,61.44,1021.88,359.06,359.84,260.76,-2.946298,24.718535,73.044278,0.015515,-0.002874,1.033288,0.000172,-0.001205,-0.000053,0,2015-08-21 00:34:51
219,35.45,26.97,26.12,61.42,1021.88,359.15,359.84,261.16,-2.783044,24.823397,72.659422,0.015620,-0.002905,1.033444,-0.000074,-0.001318,0.000142,0,2015-08-21 00:35:00
220,35.45,26.98,26.12,61.61,1021.89,359.17,359.84,261.24,-2.768565,24.658511,72.520760,0.015538,-0.003041,1.033410,0.000059,-0.000516,-0.000230,0,2015-08-21 00:35:10
221,35.45,26.98,26.12,61.46,1021.87,359.17,359.84,260.97,-2.882784,24.964012,72.592742,0.015549,-0.002922,1.033399,-0.000017,0.001467,-0.000070,0,2015-08-21 00:35:21
222,35.43,26.97,26.12,61.38,1021.87,359.13,359.86,261.09,-2.850598,24.781789,72.586901,0.015529,-0.002826,1.033327,0.000297,0.002409,0.000037,0,2015-08-21 00:35:30
223,35.45,26.97,26.12,61.41,1021.84,359.09,359.83,260.67,-3.001735,24.530670,72.465678,0.015516,-0.002993,1.033398,-0.000091,0.000296,0.000280,0,2015-08-21 00:35:40
224,35.46,26.98,26.12,61.36,1021.85,359.12,359.83,260.74,-2.939101,24.568815,72.665238,0.015348,-0.002879,1.033454,-0.000079,-0.001460,0.000016,0,2015-08-21 00:35:51
225,35.47,26.97,26.11,61.32,1021.85,359.21,359.85,260.63,-3.032418,24.708147,73.079853,0.015480,-0.002869,1.033437,0.000200,0.001281,-0.000021,0,2015-08-21 00:36:00
226,35.47,26.96,26.11,61.21,1021.83,359.14,359.85,260.61,-3.021696,24.603221,72.986188,0.015511,-0.002881,1.033501,0.000172,-0.000403,0.000088,0,2015-08-21 00:36:10
227,35.44,26.96,26.11,61.20,1021.85,359.16,359.86,260.71,-2.965844,24.723619,72.801309,0.015461,-0.002813,1.033430,0.000339,0.000371,-0.000035,0,2015-08-21 00:36:21
228,35.45,26.96,26.11,61.16,1021.86,359.13,359.85,260.58,-3.043077,24.573834,72.882299,0.015507,-0.002912,1.033499,0.000414,0.000926,-0.000282,0,2015-08-21 00:36:30
229,35.39,26.96,26.11,61.22,1021.87,359.18,359.85,260.38,-3.128270,24.840453,72.621046,0.015526,-0.002953,1.033491,0.000087,-0.000449,0.000006,0,2015-08-21 00:36:40
230,35.30,26.96,26.10,61.17,1021.86,359.11,359.84,260.25,-3.230507,24.826760,72.729560,0.015456,-0.002865,1.033400,-0.000198,-0.000778,0.000139,0,2015-08-21 00:36:51
231,35.36,26.96,26.10,60.97,1021.85,359.07,359.84,259.94,-3.382338,24.889600,72.561701,0.015594,-0.002890,1.033404,-0.000331,-0.000457,0.000590,0,2015-08-21 00:37:01
232,35.33,26.96,26.10,61.34,1021.86,359.17,359.83,259.94,-3.304235,24.779133,72.756134,0.015419,-0.002937,1.033463,-0.000053,0.000643,0.000155,0,2015-08-21 00:37:10
233,35.35,26.97,26.10,61.20,1021.85,359.18,359.85,259.86,-3.367885,24.731587,72.640766,0.015559,-0.002934,1.033374,0.000045,-0.000516,-0.000028,0,2015-08-21 00:37:30
234,35.34,26.95,26.09,61.20,1021.85,359.16,359.84,260.54,-3.030786,24.507429,72.818369,0.015526,-0.002858,1.033288,0.000104,-0.000814,0.000148,0,2015-08-21 00:37:40
235,35.39,26.95,26.09,61.24,1021.83,359.13,359.82,260.02,-3.291332,24.573473,72.808276,0.015435,-0.002847,1.033431,0.000040,0.002432,0.000125,0,2015-08-21 00:37:51
236,35.39,26.96,26.09,60.99,1021.84,359.17,359.84,259.85,-3.374767,24.767390,72.993367,0.015372,-0.002738,1.033597,-0.000075,-0.000877,0.000114,0,2015-08-21 00:38:00
237,35.39,26.96,26.09,61.26,1021.84,359.12,359.82,259.99,-3.272771,24.562739,73.016413,0.015565,-0.002978,1.033525,-0.000310,-0.000843,0.000204,0,2015-08-21 00:38:10
238,35.38,26.94,26.09,61.00,1021.84,359.18,359.85,259.49,-3.519988,24.485972,72.987077,0.015430,-0.002875,1.033429,0.000059,0.000363,-0.000205,0,2015-08-21 00:38:21
239,35.35,26.95,26.09,61.13,1021.83,359.18,359.85,259.64,-3.436161,24.547407,72.910095,0.015467,-0.002987,1.033402,0.000171,0.000180,-0.000276,0,2015-08-21 00:38:30
240,35.42,26.96,26.09,61.07,1021.85,359.15,359.85,259.73,-3.362451,24.513709,72.846299,0.015399,-0.003043,1.033335,0.000153,0.000997,-0.000382,0,2015-08-21 00:38:40
241,35.51,26.96,26.09,61.13,1021.84,359.21,359.85,260.37,-3.063056,24.445505,72.704921,0.015503,-0.002875,1.033472,-0.000113,-0.001160,-0.000128,0,2015-08-21 00:38:51
242,35.48,26.96,26.09,61.17,1021.85,359.20,359.84,260.50,-3.043697,24.504463,72.619448,0.015527,-0.002881,1.033468,0.000010,0.000058,-0.000327,0,2015-08-21 00:39:00
243,35.41,26.96,26.09,61.20,1021.84,359.19,359.85,259.72,-3.454907,24.553400,72.429217,0.015480,-0.002897,1.033501,0.000055,0.001393,-0.000352,0,2015-08-21 00:39:11
244,35.33,26.96,26.09,61.08,1021.85,359.16,359.85,259.81,-3.366588,24.563811,72.799701,0.015394,-0.002851,1.033478,0.000204,0.001488,-0.000269,0,2015-08-21 00:39:21
245,35.40,26.93,26.09,61.19,1021.82,359.15,359.84,259.71,-3.346962,24.500275,72.807582,0.015501,-0.002901,1.033455,0.000000,-0.000633,-0.000160,0,2015-08-21 00:39:30
246,35.37,26.94,26.09,61.06,1021.84,359.09,359.83,260.03,-3.301772,24.628709,72.658138,0.015446,-0.002835,1.033535,-0.000072,-0.000875,0.000108,0,2015-08-21 00:39:40
247,35.34,26.93,26.08,61.13,1021.84,359.17,359.84,260.08,-3.226246,24.597967,72.731739,0.015386,-0.002876,1.033548,-0.000126,0.000508,-0.000138,0,2015-08-21 00:39:51
248,35.36,26.94,26.08,61.04,1021.83,359.16,359.84,260.39,-3.106098,24.419735,72.609142,0.015486,-0.002817,1.033550,0.000124,0.000435,0.000007,0,2015-08-21 00:40:00
249,35.40,26.95,26.08,60.99,1021.83,359.08,359.84,259.74,-3.389302,24.195011,72.532398,0.015446,-0.003066,1.033494,0.000109,-0.002898,-0.000047,0,2015-08-21 00:40:10
250,35.39,26.95,26.08,60.93,1021.84,359.14,359.84,259.40,-3.467357,24.142335,72.308816,0.015289,-0.002963,1.033514,-0.000008,-0.001426,0.000229,0,2015-08-21 00:40:21
251,35.39,26.94,26.08,61.02,1021.84,359.13,359.82,260.22,-3.135390,24.362033,72.558987,0.015288,-0.002853,1.033620,-0.000460,0.000383,0.000234,0,2015-08-21 00:40:30
252,35.42,26.94,26.08,61.02,1021.83,359.13,359.83,260.13,-3.241294,24.579185,72.571661,0.015385,-0.002774,1.033531,-0.000269,-0.000326,0.000225,0,2015-08-21 00:40:40
253,35.41,26.93,26.07,61.10,1021.82,359.14,359.82,260.34,-3.155768,24.525065,72.847832,0.015336,-0.002857,1.033530,-0.000386,0.000341,0.000387,0,2015-08-21 00:40:51
254,35.30,26.93,26.07,61.05,1021.83,359.10,359.83,259.86,-3.343543,24.518977,72.905647,0.015354,-0.002881,1.033588,-0.000257,-0.001636,0.000266,0,2015-08-21 00:41:00
255,35.34,26.94,26.07,60.97,1021.83,359.18,359.81,259.35,-3.602032,24.605564,73.119884,0.015401,-0.002872,1.033463,-0.000289,-0.000997,0.000293,0,2015-08-21 00:41:10
256,35.38,26.94,26.07,61.02,1021.83,359.14,359.83,259.94,-3.278583,24.473153,72.984292,0.015384,-0.002885,1.033456,-0.000030,0.000401,0.000093,0,2015-08-21 00:41:21
257,35.39,26.94,26.07,60.86,1021.83,359.22,359.83,260.16,-3.192557,24.518575,72.497926,0.015447,-0.002950,1.033627,-0.000227,-0.000274,0.000146,0,2015-08-21 00:41:30
258,35.38,26.94,26.06,60.83,1021.83,359.26,359.83,260.26,-3.147857,24.371374,72.748742,0.015417,-0.002912,1.033481,-0.000155,0.001011,0.000120,0,2015-08-21 00:41:40
259,35.38,26.93,26.06,60.88,1021.85,359.13,359.83,260.45,-3.061599,24.520382,72.884749,0.015422,-0.002826,1.033477,-0.000193,-0.001615,0.000217,0,2015-08-21 00:41:51
260,35.28,26.93,26.06,60.86,1021.86,359.11,359.84,260.39,-3.112033,24.454266,72.910904,0.015363,-0.002831,1.033407,0.000150,-0.000057,0.000047,0,2015-08-21 00:42:00
261,35.37,26.94,26.06,60.83,1021.82,359.12,359.85,259.98,-3.295536,24.362480,72.551383,0.015435,-0.002898,1.033482,-0.000089,-0.002058,-0.000062,0,2015-08-21 00:42:10
262,35.30,26.93,26.06,61.01,1021.83,359.20,359.83,260.19,-3.156976,24.356965,72.879137,0.015368,-0.002855,1.033439,-0.000169,-0.000450,0.000191,0,2015-08-21 00:42:21
263,35.36,26.92,26.06,60.78,1021.86,359.23,359.85,260.18,-3.171990,24.427324,72.985421,0.015383,-0.002865,1.033455,0.000179,0.000086,-0.000152,0,2015-08-21 00:42:30
264,35.34,26.92,26.06,60.80,1021.85,359.19,359.83,260.02,-3.224854,24.411496,72.578873,0.015397,-0.002770,1.033487,-0.000149,0.000376,-0.000014,0,2015-08-21 00:42:40
265,35.29,26.92,26.06,60.86,1021.85,359.12,359.85,260.39,-3.151611,24.635769,72.858814,0.015323,-0.002820,1.033523,0.000002,-0.000628,0.000079,0,2015-08-21 00:42:51
266,35.38,26.91,26.06,61.01,1021.83,359.11,359.82,259.76,-3.425589,24.497898,72.686829,0.015293,-0.002887,1.033500,-0.000302,0.000891,0.000435,0,2015-08-21 00:43:01
267,35.30,26.92,26.06,60.81,1021.85,359.14,359.81,259.46,-3.524014,24.623121,72.617540,0.015232,-0.002872,1.033412,-0.000320,-0.000485,0.000125,0,2015-08-21 00:43:10
268,35.46,26.92,26.06,60.84,1021.85,359.13,359.83,259.53,-3.498503,24.617888,72.574328,0.015271,-0.002788,1.033576,-0.000297,0.000883,0.000099,0,2015-08-21 00:43:21
269,35.31,26.92,26.06,60.97,1021.85,359.16,359.82,259.69,-3.434816,24.401662,72.340374,0.015332,-0.002946,1.033607,-0.000593,0.000233,0.000213,0,2015-08-21 00:43:31
270,35.30,26.92,26.06,60.98,1021.85,359.12,359.84,259.41,-3.512804,24.458515,72.614939,0.015243,-0.002939,1.033465,-0.000175,-0.001132,0.000276,0,2015-08-21 00:43:40
271,35.29,26.92,26.06,60.83,1021.88,359.15,359.83,259.37,-3.573242,24.485902,72.372945,0.015246,-0.002916,1.033537,-0.000142,-0.001137,0.000067,0,2015-08-21 00:43:51
272,35.44,26.92,26.06,60.83,1021.90,359.11,359.85,259.50,-3.505484,24.668170,72.683366,0.015269,-0.002691,1.033608,-0.000057,-0.000126,0.000044,0,2015-08-21 00:44:01
273,35.35,26.93,26.06,60.80,1021.88,359.14,359.84,259.40,-3.622144,24.614476,72.809329,0.015259,-0.002871,1.033602,-0.000022,-0.000434,0.000251,0,2015-08-21 00:44:10
274,35.28,26.91,26.06,60.78,1021.88,359.15,359.84,259.70,-3.394316,24.702145,73.210042,0.015301,-0.002746,1.033547,-0.000093,0.001151,-0.000132,0,2015-08-21 00:44:21
275,35.32,26.92,26.06,61.03,1021.89,359.19,359.85,259.52,-3.519938,24.681697,73.344172,0.015278,-0.002844,1.033423,0.000047,-0.000040,-0.000164,0,2015-08-21 00:44:30
276,35.35,26.91,26.06,60.72,1021.89,359.16,359.85,259.75,-3.406695,24.616475,73.298997,0.015407,-0.002716,1.033459,-0.000061,0.000589,-0.000066,0,2015-08-21 00:44:40
277,35.46,26.92,26.06,60.93,1021.92,359.12,359.83,259.55,-3.437122,24.478087,73.371454,0.015271,-0.002694,1.033334,-0.000343,-0.000086,-0.000169,0,2015-08-21 00:44:51
278,35.39,26.91,26.06,60.69,1021.91,359.16,359.85,259.47,-3.508944,24.424807,73.401218,0.015359,-0.002782,1.033469,0.000096,-0.002152,0.000080,0,2015-08-21 00:45:00
279,35.39,26.92,26.06,60.82,1021.90,359.12,359.84,260.26,-3.141513,24.737474,73.546200,0.015406,-0.002841,1.033349,0.000226,-0.000053,-0.000383,0,2015-08-21 00:45:10
280,35.30,26.91,26.06,60.88,1021.90,359.19,359.85,259.77,-3.390392,24.427490,73.108300,0.015402,-0.002775,1.033590,-0.000157,0.001811,-0.000171,0,2015-08-21 00:45:21
281,35.32,26.92,26.06,60.56,1021.91,359.15,359.86,259.80,-3.359235,24.347205,73.104457,0.015383,-0.002880,1.033525,0.000289,-0.002692,-0.000130,0,2015-08-21 00:45:31
282,35.33,26.90,26.05,60.65,1021.90,359.12,359.86,259.60,-3.445114,24.554161,73.356743,0.015405,-0.002616,1.033452,0.000208,-0.001195,-0.000291,0,2015-08-21 00:45:40
283,35.31,26.91,26.05,60.78,1021.90,359.25,359.85,259.79,-3.419505,24.818405,73.416891,0.015239,-0.002786,1.033535,0.000299,0.002212,-0.000223,0,2015-08-21 00:45:50
284,35.37,26.90,26.05,60.66,1021.90,359.19,359.86,259.47,-3.571387,24.811358,73.202850,0.015313,-0.002719,1.033535,0.000017,0.000615,-0.000224,0,2015-08-21 00:46:01
285,35.35,26.91,26.05,60.81,1021.91,359.16,359.85,260.00,-3.309093,24.973727,73.414456,0.015187,-0.002816,1.033320,0.000244,0.000757,-0.000281,0,2015-08-21 00:46:10
286,35.40,26.90,26.05,60.69,1021.91,359.22,359.85,260.03,-3.348616,24.812202,73.178268,0.015408,-0.002716,1.033363,0.000011,0.003126,-0.000073,0,2015-08-21 00:46:20
287,35.28,26.90,26.05,60.70,1021.91,359.22,359.87,259.05,-3.791112,24.980951,73.306825,0.015360,-0.002819,1.033415,0.000351,0.001089,-0.000254,0,2015-08-21 00:46:31
288,35.38,26.90,26.05,60.84,1021.91,359.19,359.87,258.77,-3.831483,24.716193,73.222047,0.015273,-0.002885,1.033559,0.000602,0.000204,-0.000427,0,2015-08-21 00:46:40
289,35.30,26.89,26.05,60.80,1021.90,359.20,359.86,259.64,-3.419926,24.505989,73.121591,0.015363,-0.002830,1.033413,0.000131,0.001406,-0.000392,0,2015-08-21 00:46:50
290,35.34,26.89,26.04,60.66,1021.91,359.20,359.85,259.58,-3.423383,24.297553,73.263146,0.015418,-0.002786,1.033431,0.000144,0.000268,-0.000102,0,2015-08-21 00:47:01
291,35.38,26.89,26.04,60.76,1021.92,359.12,359.85,259.56,-3.427064,24.288050,73.384620,0.015365,-0.002928,1.033407,0.000178,0.000842,-0.000052,0,2015-08-21 00:47:10
292,35.35,26.90,26.04,60.80,1021.93,359.15,359.83,259.60,-3.420190,24.562458,73.428308,0.015406,-0.002892,1.033503,0.000430,0.002111,-0.000240,0,2015-08-21 00:47:20
293,35.29,26.91,26.04,60.71,1021.91,359.09,359.86,259.71,-3.430880,24.683482,73.338921,0.015318,-0.002877,1.033352,0.000385,0.000171,-0.000043,0,2015-08-21 00:47:31
294,35.25,26.90,26.04,60.80,1021.91,359.15,359.84,260.03,-3.316523,24.622756,73.364631,0.015385,-0.002903,1.033404,0.000084,0.000555,0.000118,0,2015-08-21 00:47:41
295,35.28,26.91,26.04,60.77,1021.92,359.09,359.85,259.73,-3.419198,24.688370,72.985079,0.015489,-0.003010,1.033415,0.000166,-0.002002,-0.000207,0,2015-08-21 00:47:50
296,35.28,26.89,26.04,60.65,1021.91,359.16,359.85,259.50,-3.570014,24.887647,72.798037,0.015454,-0.002859,1.033501,0.000144,0.000939,-0.000125,0,2015-08-21 00:48:01
297,35.33,26.89,26.04,60.64,1021.90,359.15,359.85,259.52,-3.526121,24.846372,72.622304,0.015329,-0.002800,1.033376,-0.000036,0.002193,0.000042,0,2015-08-21 00:48:11
298,35.26,26.90,26.04,60.69,1021.91,359.20,359.83,260.18,-3.243746,24.853983,72.832968,0.015515,-0.002765,1.033360,-0.000277,-0.000428,0.000254,0,2015-08-21 00:48:20
299,35.33,26.89,26.04,60.68,1021.91,359.11,359.83,260.10,-3.301811,24.678850,72.560978,0.015394,-0.002887,1.033405,-0.000039,-0.001670,0.000000,0,2015-08-21 00:48:31
300,35.29,26.90,26.04,60.60,1021.88,359.11,359.83,259.85,-3.362673,24.796834,72.963336,0.015401,-0.002890,1.033435,-0.000307,-0.000350,0.000302,0,2015-08-21 00:48:41
301,35.37,26.90,26.04,60.58,1021.90,359.04,359.83,260.35,-3.200871,25.077770,73.033593,0.015548,-0.002974,1.033470,0.000016,-0.000176,0.000043,0,2015-08-21 00:48:50
302,35.31,26.89,26.04,60.82,1021.91,359.09,359.85,260.60,-3.116305,25.129307,72.979877,0.015425,-0.002924,1.033645,-0.000112,-0.001515,0.000024,0,2015-08-21 00:49:01
303,35.36,26.90,26.04,60.68,1021.92,359.12,359.82,260.39,-3.174467,25.041493,73.015470,0.015432,-0.002905,1.033383,-0.000400,0.001087,0.000105,0,2015-08-21 00:49:11
304,35.42,26.89,26.04,60.54,1021.92,359.16,359.85,260.77,-2.995624,25.016042,72.990085,0.015643,-0.002722,1.032740,-0.000257,0.000601,0.000086,0,2015-08-21 00:49:20
305,35.25,26.90,26.04,60.61,1021.91,359.10,359.83,260.67,-3.078802,25.197846,72.967955,0.015424,-0.002910,1.033584,-0.000248,-0.001368,0.000141,0,2015-08-21 00:49:31
306,35.28,26.90,26.04,60.58,1021.89,359.19,359.85,260.96,-2.925265,24.982861,72.746906,0.015376,-0.002856,1.033443,0.000097,0.000045,0.000121,0,2015-08-21 00:49:41
307,35.29,26.91,26.04,60.68,1021.90,359.15,359.85,260.58,-3.116154,25.158703,72.542913,0.015332,-0.002765,1.033371,-0.000038,0.001224,0.000150,0,2015-08-21 00:49:50
308,35.28,26.90,26.04,60.55,1021.91,359.23,359.85,261.08,-2.925681,25.357019,72.703951,0.015448,-0.002840,1.033383,0.000111,0.002141,-0.000028,0,2015-08-21 00:50:00
309,35.31,26.90,26.04,60.60,1021.92,359.11,359.86,261.16,-2.919634,25.350489,72.688867,0.015396,-0.002727,1.033529,0.000056,-0.002529,-0.000024,0,2015-08-21 00:50:11
310,35.30,26.89,26.04,60.66,1021.93,359.10,359.85,260.95,-2.933162,25.203564,72.591026,0.015412,-0.002910,1.033414,0.000166,-0.000653,-0.000218,0,2015-08-21 00:50:20
311,35.30,26.87,26.04,60.54,1021.94,359.09,359.84,261.47,-2.737363,25.300681,72.438923,0.015313,-0.002825,1.033520,0.000000,-0.000069,0.000122,0,2015-08-21 00:50:30
312,35.29,26.88,26.04,60.43,1021.94,359.11,359.84,260.92,-3.025530,25.228733,72.593328,0.015475,-0.002700,1.033480,-0.000067,-0.000049,0.000025,0,2015-08-21 00:50:41
313,35.33,26.88,26.04,60.46,1021.94,359.14,359.83,260.56,-3.145783,25.203503,72.582076,0.015423,-0.002795,1.033400,-0.000101,0.000456,0.000126,0,2015-08-21 00:50:50
314,35.31,26.88,26.03,60.63,1021.95,359.11,359.83,260.38,-3.268602,25.101174,72.765046,0.015540,-0.002856,1.033460,-0.000173,0.000451,0.000313,0,2015-08-21 00:51:00
315,35.36,26.89,26.04,60.68,1021.96,359.22,359.85,260.77,-3.015830,25.182238,72.421481,0.015281,-0.002809,1.033429,0.000075,0.002735,-0.000055,0,2015-08-21 00:51:11
316,35.26,26.88,26.03,60.51,1021.96,359.10,359.86,260.97,-2.939530,25.085684,72.526508,0.015363,-0.002754,1.033349,0.000259,0.000871,-0.000139,0,2015-08-21 00:51:20
317,35.25,26.88,26.04,60.50,1021.97,359.13,359.83,261.05,-2.901184,25.118188,72.375510,0.015374,-0.002831,1.033434,-0.000138,-0.000742,0.000089,0,2015-08-21 00:51:40
318,35.30,26.90,26.04,60.56,1021.97,359.16,359.85,261.24,-2.869490,25.273662,72.372496,0.015432,-0.002829,1.033394,0.000010,0.000019,0.000081,0,2015-08-21 00:51:50
319,35.28,26.90,26.04,60.71,1021.95,359.12,359.84,260.91,-2.954836,25.040343,72.550506,0.015412,-0.002819,1.033511,-0.000060,0.001161,0.000259,0,2015-08-21 00:52:01
320,35.32,26.89,26.04,60.35,1021.98,359.19,359.84,261.47,-2.668853,25.051050,72.583410,0.015370,-0.002803,1.033561,0.000175,0.000602,0.000068,0,2015-08-21 00:52:10
321,35.26,26.89,26.04,60.58,1021.97,359.12,359.83,261.80,-2.574540,25.059591,72.673114,0.015408,-0.002773,1.033455,-0.000252,0.000062,0.000225,0,2015-08-21 00:52:20
322,35.30,26.90,26.04,60.54,1021.97,359.09,359.82,261.50,-2.647836,24.884067,72.709787,0.015517,-0.002904,1.033273,-0.000479,-0.000415,0.000016,0,2015-08-21 00:52:31
323,35.37,26.90,26.04,60.44,1021.97,359.18,359.83,261.09,-2.907519,25.016415,72.544403,0.015345,-0.002900,1.033447,-0.000234,-0.002351,0.000023,0,2015-08-21 00:52:40
324,35.31,26.88,26.04,60.64,1021.97,359.16,359.84,261.21,-2.775615,24.814214,72.651567,0.015400,-0.002916,1.033406,0.000044,0.000055,0.000025,0,2015-08-21 00:52:51
325,35.26,26.90,26.04,60.36,1021.97,359.14,359.83,261.33,-2.777287,24.985325,72.740034,0.015408,-0.002878,1.033451,-0.000172,0.000597,0.000244,0,2015-08-21 00:53:00
326,35.30,26.91,26.04,60.52,1021.96,359.09,359.82,261.43,-2.710321,25.102962,72.793669,0.015396,-0.003009,1.033436,-0.000316,-0.000911,0.000072,0,2015-08-21 00:53:10
327,35.36,26.91,26.03,60.46,1021.98,359.16,359.82,261.35,-2.724131,25.010163,72.922862,0.015366,-0.002781,1.033424,-0.000458,-0.000541,0.000125,0,2015-08-21 00:53:21
328,35.30,26.89,26.03,60.40,1022.00,359.16,359.83,262.09,-2.419734,25.033212,72.677919,0.015460,-0.002871,1.033564,-0.000153,-0.000194,-0.000154,0,2015-08-21 00:53:30
329,35.39,26.88,26.03,60.43,1021.98,359.13,359.83,261.93,-2.474353,24.882709,73.273389,0.015388,-0.002957,1.033573,-0.000073,-0.001622,-0.000028,0,2015-08-21 00:53:40
330,35.35,26.87,26.02,60.66,1021.97,359.08,359.84,261.53,-2.661425,24.827045,72.966764,0.015394,-0.002858,1.033490,0.000038,-0.000593,-0.000004,0,2015-08-21 00:53:51
331,35.25,26.86,26.02,60.63,1021.98,359.10,359.85,261.18,-2.764610,24.608919,72.826378,0.015307,-0.002901,1.033451,0.000134,-0.001245,-0.000220,0,2015-08-21 00:54:00
332,35.29,26.87,26.02,60.36,1021.99,359.15,359.86,261.33,-2.706826,24.560431,72.863214,0.015419,-0.002848,1.033446,0.000356,0.000244,-0.000411,0,2015-08-21 00:54:10
333,35.27,26.87,26.02,60.38,1021.99,359.14,359.86,261.39,-2.667592,24.735591,73.215663,0.015366,-0.002866,1.033465,0.000289,0.001473,-0.000285,0,2015-08-21 00:54:21
334,35.23,26.86,26.01,60.43,1021.99,359.20,359.85,260.90,-2.935910,24.875082,73.297203,0.015309,-0.002787,1.033586,0.000145,-0.000118,0.000052,0,2015-08-21 00:54:30
335,35.24,26.86,26.01,60.32,1021.96,359.17,359.85,261.24,-2.755912,24.736582,73.169248,0.015450,-0.002817,1.033400,0.000164,0.001522,0.000104,0,2015-08-21 00:54:40
336,35.34,26.88,26.01,60.34,1021.98,359.18,359.83,260.95,-2.885224,24.629424,73.110309,0.015402,-0.002932,1.033445,0.000059,-0.000030,0.000099,0,2015-08-21 00:54:51
337,35.35,26.87,26.01,60.41,1021.96,359.09,359.84,260.83,-2.956525,24.913511,73.111846,0.015496,-0.002747,1.033436,-0.000129,-0.000123,0.000180,0,2015-08-21 00:55:01
338,35.33,26.87,26.01,60.46,1021.96,359.10,359.84,261.07,-2.842273,24.818486,72.754982,0.015390,-0.002835,1.033392,-0.000054,0.000880,-0.000159,0,2015-08-21 00:55:10
339,35.27,26.88,26.01,60.49,1021.98,359.12,359.83,260.75,-2.948068,24.577105,72.885768,0.015487,-0.002900,1.033422,-0.000073,-0.001809,-0.000071,0,2015-08-21 00:55:21
340,35.36,26.86,26.01,60.36,1021.96,359.17,359.84,260.92,-2.880978,24.799922,72.902730,0.015533,-0.002982,1.033331,0.000061,0.000803,-0.000095,0,2015-08-21 00:55:31
341,35.20,26.87,26.01,60.41,1021.97,359.21,359.83,261.23,-2.795516,24.941140,72.858308,0.015517,-0.002917,1.033374,0.000070,0.001390,0.000004,0,2015-08-21 00:55:40
342,35.28,26.86,26.01,60.39,1021.99,359.12,359.83,261.11,-2.826531,24.967040,72.949462,0.015379,-0.002962,1.033550,-0.000041,0.000207,0.000005,0,2015-08-21 00:55:50
343,35.20,26.87,26.01,60.28,1022.02,359.19,359.85,261.35,-2.732284,24.887897,73.073806,0.015507,-0.002973,1.033289,0.000117,0.000538,-0.000294,0,2015-08-21 00:56:01
344,35.34,26.87,26.01,60.47,1022.01,359.15,359.87,260.95,-2.933416,25.062248,73.126658,0.015452,-0.003064,1.033358,0.000585,0.000920,-0.000700,0,2015-08-21 00:56:10
345,35.33,26.86,26.01,60.24,1022.03,359.24,359.87,260.95,-2.911229,24.974474,73.075300,0.015370,-0.003020,1.033513,0.000750,0.001404,-0.000448,0,2015-08-21 00:56:21
346,35.29,26.86,26.01,60.34,1022.01,359.24,359.87,260.74,-2.959667,24.892518,73.270238,0.015431,-0.003001,1.033390,0.000327,0.002690,-0.000511,0,2015-08-21 00:56:30
347,35.30,26.88,26.01,60.48,1022.01,359.20,359.86,261.06,-2.873237,24.970151,73.147157,0.015505,-0.003043,1.033385,0.000425,-0.000330,-0.000240,0,2015-08-21 00:56:40
348,35.25,26.86,26.01,60.21,1022.02,359.16,359.83,261.02,-2.841075,24.806329,72.641844,0.015537,-0.002958,1.033474,0.000004,0.000849,-0.000080,0,2015-08-21 00:56:51
349,35.25,26.85,26.01,60.30,1022.01,359.17,359.85,261.65,-2.595380,25.004730,72.830078,0.015460,-0.002937,1.033324,-0.000009,0.001055,0.000095,0,2015-08-21 00:57:00
350,35.28,26.87,26.00,60.40,1022.02,359.13,359.83,262.09,-2.366798,24.711216,72.884086,0.015466,-0.002944,1.033570,-0.000125,0.000567,0.000262,0,2015-08-21 00:57:10
351,35.25,26.87,26.00,60.31,1022.02,359.15,359.83,261.96,-2.439714,24.649012,73.207715,0.015392,-0.002928,1.033389,-0.000091,-0.000061,0.000071,0,2015-08-21 00:57:21
352,35.23,26.85,26.00,60.29,1022.03,359.22,359.83,261.68,-2.556712,24.638421,73.256345,0.015447,-0.002823,1.033530,0.000151,-0.000055,-0.000059,0,2015-08-21 00:57:30
353,35.16,26.85,26.00,60.31,1022.03,359.13,359.84,261.08,-2.858844,24.897528,72.821478,0.015459,-0.002962,1.033485,0.000083,0.000888,0.000024,0,2015-08-21 00:57:40
354,35.22,26.85,25.99,60.23,1022.03,359.20,359.79,261.14,-2.865176,24.955764,72.763921,0.015346,-0.002887,1.033440,-0.000985,0.000150,0.000355,0,2015-08-21 00:57:51
355,35.27,26.85,25.99,60.26,1022.03,359.10,359.84,261.02,-2.943181,25.232068,72.704686,0.015334,-0.003030,1.033362,-0.000168,-0.001206,0.000260,0,2015-08-21 00:58:00
356,35.26,26.85,25.99,60.28,1022.02,359.13,359.82,261.43,-2.773982,25.266626,72.472497,0.015485,-0.003064,1.033450,-0.000186,0.000453,0.000373,0,2015-08-21 00:58:10
357,35.16,26.84,25.99,60.23,1022.02,359.15,359.83,261.27,-2.803015,25.061502,72.633811,0.015350,-0.003022,1.033671,0.000108,-0.000255,0.000192,0,2015-08-21 00:58:21
358,35.23,26.83,25.99,60.27,1022.02,359.20,359.85,261.31,-2.774682,25.090933,72.727928,0.015260,-0.002955,1.033405,0.000157,-0.001221,0.000008,0,2015-08-21 00:58:30
359,35.23,26.84,25.99,60.28,1022.03,359.25,359.86,261.14,-2.869411,24.956016,72.747019,0.015282,-0.002917,1.033489,0.000406,0.000260,-0.000147,0,2015-08-21 00:58:40
360,35.27,26.83,25.99,60.30,1022.02,359.15,359.85,260.70,-3.058453,25.003342,72.479219,0.015390,-0.002992,1.033422,-0.000152,-0.000305,0.000057,0,2015-08-21 00:58:51
361,35.17,26.83,25.99,60.42,1022.02,359.13,359.84,261.01,-2.929939,25.094962,72.145543,0.015467,-0.002969,1.033437,0.000018,0.001469,-0.000104,0,2015-08-21 00:59:00
362,35.21,26.85,25.99,60.43,1022.02,359.11,359.84,260.95,-2.867815,24.965619,72.640186,0.015270,-0.002739,1.033433,-0.000132,-0.000187,0.000025,0,2015-08-21 00:59:10
363,35.23,26.86,26.00,60.20,1022.01,359.22,359.83,261.55,-2.688187,25.010668,72.389813,0.015404,-0.002879,1.033396,-0.000085,0.000377,0.000032,0,2015-08-21 00:59:21
364,35.26,26.83,26.00,60.25,1022.00,359.14,359.85,261.41,-2.744720,25.068420,72.788446,0.015297,-0.002939,1.033518,-0.000105,-0.000215,-0.000004,0,2015-08-21 00:59:30
365,35.34,26.84,26.00,60.19,1022.01,359.18,359.84,260.96,-2.952126,25.166926,72.588627,0.015381,-0.002898,1.033607,0.000148,0.001171,-0.000025,0,2015-08-21 00:59:40
366,35.27,26.84,25.99,60.27,1022.01,359.12,359.84,261.65,-2.649925,25.170761,72.328300,0.015346,-0.002815,1.033570,-0.000116,-0.000726,-0.000180,0,2015-08-21 00:59:51
367,35.31,26.84,25.99,60.26,1022.00,359.13,359.84,261.58,-2.675292,25.145564,72.262736,0.015332,-0.002890,1.033575,-0.000041,-0.000912,-0.000044,0,2015-08-21 01:00:00
368,35.27,26.84,25.99,60.22,1022.00,359.21,359.85,261.26,-2.829348,25.012900,72.163182,0.015352,-0.002865,1.033450,0.000119,0.002694,-0.000003,0,2015-08-21 01:00:10
369,35.26,26.83,25.99,60.50,1021.99,359.13,359.86,261.00,-2.940129,25.152955,72.306532,0.015257,-0.002897,1.033458,0.000363,0.000030,-0.000259,0,2015-08-21 01:00:21
370,35.23,26.83,25.99,60.16,1021.99,359.16,359.84,260.85,-3.055466,25.277799,72.913510,0.015374,-0.002850,1.033550,-0.000106,0.000593,-0.000129,0,2015-08-21 01:00:30
371,35.21,26.85,25.99,60.20,1022.00,359.11,359.85,261.01,-2.890921,25.127356,72.925355,0.015352,-0.002917,1.033438,0.000247,0.000145,-0.000231,0,2015-08-21 01:00:40
372,35.21,26.85,25.99,60.27,1021.99,359.18,359.85,261.75,-2.606075,25.415945,72.589361,0.015309,-0.002926,1.033498,0.000217,0.001486,-0.000416,0,2015-08-21 01:00:51
373,35.31,26.86,25.99,60.35,1021.97,359.25,359.84,261.21,-2.888920,25.150230,72.486454,0.015453,-0.003065,1.033401,0.000043,0.002899,-0.000343,0,2015-08-21 01:01:00
374,35.23,26.85,25.99,60.36,1021.98,359.10,359.84,260.86,-2.971583,25.107691,72.576652,0.015493,-0.002946,1.033452,0.000037,-0.001351,-0.000183,0,2015-08-21 01:01:11
375,35.29,26.85,25.99,60.27,1021.99,359.20,359.86,261.22,-2.840956,25.337387,72.509712,0.015347,-0.002960,1.033463,0.000416,0.001730,-0.000535,0,2015-08-21 01:01:20
376,35.31,26.85,26.00,60.30,1021.99,359.17,359.86,260.98,-2.921580,25.047008,72.724911,0.015399,-0.002823,1.033503,0.000247,0.001708,-0.000314,0,2015-08-21 01:01:30
377,35.26,26.85,26.00,60.26,1021.99,359.19,359.86,260.77,-3.001725,24.995495,72.987448,0.015439,-0.002975,1.033490,0.000575,-0.000282,-0.000566,0,2015-08-21 01:01:41
378,35.33,26.85,26.00,60.38,1021.99,359.23,359.86,261.09,-2.851026,24.972570,72.874241,0.015356,-0.003012,1.033428,0.000603,-0.000376,-0.000380,0,2015-08-21 01:01:50
379,35.27,26.85,26.00,60.23,1021.98,359.12,359.87,260.77,-2.999924,25.126404,72.975348,0.015279,-0.002829,1.033345,0.000432,0.001340,-0.000360,0,2015-08-21 01:02:00
380,35.27,26.85,26.00,60.07,1021.98,359.16,359.85,261.11,-2.908070,25.164357,72.559587,0.015293,-0.002930,1.033513,0.000214,0.000099,-0.000081,0,2015-08-21 01:02:10
381,35.32,26.85,26.00,60.12,1021.97,359.05,359.84,261.20,-2.834725,25.074242,72.424576,0.015314,-0.002853,1.033424,0.000224,0.000041,-0.000194,0,2015-08-21 01:02:20
382,35.27,26.85,26.00,60.25,1021.98,359.16,359.86,260.67,-3.070902,25.163024,72.452976,0.015365,-0.002910,1.033485,0.000594,0.000748,-0.000537,0,2015-08-21 01:02:40
383,35.33,26.86,26.00,60.14,1021.98,359.17,359.86,260.25,-3.279877,25.156493,72.445898,0.015244,-0.002996,1.033427,0.000324,0.001700,-0.000597,0,2015-08-21 01:02:50
384,35.29,26.85,26.00,60.08,1021.96,359.12,359.86,260.86,-3.004970,25.387864,72.411144,0.015298,-0.003009,1.033511,0.000361,0.000310,-0.000274,0,2015-08-21 01:03:01
385,35.28,26.85,26.00,60.37,1021.95,359.24,359.85,260.87,-3.033460,25.266260,72.660174,0.015263,-0.002940,1.033319,0.000328,-0.000536,-0.000449,0,2015-08-21 01:03:10
386,35.33,26.85,26.00,60.18,1021.96,359.25,359.86,260.26,-3.256116,25.063637,72.497016,0.015392,-0.003007,1.033476,0.000414,-0.001893,-0.000487,0,2015-08-21 01:03:20
387,35.31,26.84,26.00,60.10,1021.97,359.18,359.86,260.38,-3.253630,25.506375,72.357387,0.015439,-0.002901,1.033350,0.000120,0.001245,-0.000298,0,2015-08-21 01:03:31
388,35.24,26.83,26.00,60.03,1021.94,359.11,359.86,260.72,-3.126286,25.565124,72.631807,0.015385,-0.002739,1.033399,0.000316,-0.000535,-0.000348,0,2015-08-21 01:03:40
389,35.23,26.84,26.00,60.03,1021.94,359.19,359.85,260.31,-3.196271,24.983937,72.983036,0.015453,-0.002951,1.033342,0.000356,0.000800,-0.000333,0,2015-08-21 01:03:50
390,35.27,26.84,25.99,60.17,1021.94,359.18,359.85,260.57,-3.130766,25.129270,72.583570,0.015430,-0.003076,1.033464,0.000040,-0.000732,-0.000040,0,2015-08-21 01:04:01
391,35.25,26.82,25.99,60.17,1021.94,359.11,359.84,261.12,-2.934653,25.479883,72.691985,0.015352,-0.002879,1.033391,0.000067,-0.000287,0.000047,0,2015-08-21 01:04:10
392,35.28,26.84,25.99,60.06,1021.93,359.19,359.84,260.75,-3.086147,25.189677,72.576943,0.015388,-0.002951,1.033478,-0.000005,-0.000039,0.000103,0,2015-08-21 01:04:20
393,35.24,26.82,25.99,60.01,1021.92,359.19,359.84,260.32,-3.230700,24.955801,72.864348,0.015451,-0.003024,1.033496,0.000113,-0.000576,-0.000233,0,2015-08-21 01:04:31
394,35.23,26.83,25.99,60.06,1021.92,359.14,359.85,259.63,-3.550326,25.015492,72.937023,0.015272,-0.002991,1.033550,0.000192,-0.000434,0.000145,0,2015-08-21 01:04:40
395,35.22,26.81,25.99,60.15,1021.94,359.13,359.84,260.06,-3.289488,25.018111,72.709318,0.015430,-0.002935,1.033426,-0.000022,-0.001659,-0.000096,0,2015-08-21 01:04:50
396,35.28,26.82,25.98,60.16,1021.93,359.19,359.85,260.59,-3.078904,24.891706,72.732978,0.015258,-0.002871,1.033425,0.000102,0.001159,-0.000083,0,2015-08-21 01:05:01
397,35.23,26.82,25.98,60.00,1021.95,359.15,359.86,260.97,-2.902625,24.833657,72.989804,0.015365,-0.002930,1.033421,0.000463,-0.001370,-0.000024,0,2015-08-21 01:05:10
398,35.29,26.84,25.98,60.05,1021.94,359.09,359.85,261.13,-2.808552,24.909150,73.264081,0.015381,-0.002928,1.033437,0.000282,-0.000751,-0.000109,0,2015-08-21 01:05:20
399,35.28,26.82,25.98,60.05,1021.93,359.17,359.85,261.03,-2.967284,25.320424,72.948261,0.015447,-0.003026,1.033413,0.000140,0.000094,-0.000034,0,2015-08-21 01:05:31
400,35.27,26.81,25.98,60.15,1021.92,359.14,359.86,261.11,-2.861809,25.146365,73.014359,0.015541,-0.002903,1.033380,0.000414,-0.000582,-0.000196,0,2015-08-21 01:05:40
401,35.20,26.82,25.98,60.13,1021.89,359.12,359.85,260.92,-2.946545,25.014497,73.016499,0.015321,-0.003089,1.033438,0.000145,0.000246,-0.000206,0,2015-08-21 01:05:50
402,35.20,26.83,25.98,59.95,1021.91,359.16,359.86,261.11,-2.857055,24.851123,72.828684,0.015223,-0.002983,1.033541,0.000484,-0.000852,-0.000294,0,2015-08-21 01:06:01
403,35.24,26.82,25.98,60.06,1021.91,359.19,359.85,260.75,-3.012186,24.716927,72.898313,0.015406,-0.002949,1.033579,0.000058,0.002401,0.000068,0,2015-08-21 01:06:10
404,35.32,26.82,25.97,60.07,1021.90,359.17,359.85,260.07,-3.279990,24.777774,72.761603,0.015447,-0.003012,1.033575,0.000508,0.001672,-0.000234,0,2015-08-21 01:06:20
405,35.26,26.82,25.97,59.98,1021.88,359.23,359.86,260.41,-3.163508,25.064494,72.802245,0.015283,-0.002990,1.033492,0.000485,0.000823,-0.000054,0,2015-08-21 01:06:31
406,35.27,26.80,25.97,60.12,1021.89,359.24,359.84,261.26,-2.794660,25.048203,72.649906,0.015396,-0.003113,1.033528,0.000033,-0.002324,-0.000234,0,2015-08-21 01:06:40
407,35.24,26.80,25.97,60.06,1021.90,359.15,359.83,260.71,-3.014190,24.919281,72.857256,0.015453,-0.003018,1.033371,-0.000043,0.000583,-0.000161,0,2015-08-21 01:06:50
408,35.22,26.80,25.97,60.09,1021.90,359.15,359.84,261.28,-2.764146,24.868486,72.752421,0.015307,-0.003026,1.033523,-0.000024,0.001198,-0.000104,0,2015-08-21 01:07:01
409,35.21,26.80,25.96,59.94,1021.89,359.15,359.83,261.02,-2.902695,25.097282,72.992791,0.015388,-0.002996,1.033365,-0.000252,-0.000352,0.000108,0,2015-08-21 01:07:10
410,35.20,26.81,25.96,60.07,1021.86,359.06,359.84,260.89,-2.939715,24.909036,73.084296,0.015280,-0.002980,1.033600,0.000019,-0.000933,-0.000033,0,2015-08-21 01:07:20
411,35.21,26.81,25.96,60.08,1021.88,359.02,359.85,260.82,-2.996221,24.845352,72.940261,0.015299,-0.003022,1.033539,0.000098,0.001262,-0.000031,0,2015-08-21 01:07:31
412,35.18,26.80,25.96,59.90,1021.88,359.05,359.85,260.88,-2.929579,24.827352,72.880866,0.015288,-0.002823,1.033584,-0.000009,0.002739,0.000097,0,2015-08-21 01:07:40
413,35.22,26.79,25.96,59.98,1021.87,359.13,359.83,261.25,-2.848724,25.012269,72.781490,0.015218,-0.002982,1.033507,-0.000104,0.001485,-0.000058,0,2015-08-21 01:07:50
414,35.23,26.78,25.95,60.18,1021.87,359.15,359.84,260.94,-2.935954,25.070822,72.936864,0.015290,-0.002948,1.033505,0.000194,-0.001090,0.000071,0,2015-08-21 01:08:01
415,35.23,26.77,25.95,59.99,1021.86,359.13,359.84,261.25,-2.801503,24.918878,73.153569,0.015347,-0.002984,1.033496,-0.000002,0.000202,-0.000140,0,2015-08-21 01:08:10
416,35.19,26.78,25.94,59.94,1021.86,359.18,359.83,261.34,-2.741053,24.949389,73.014493,0.015374,-0.002994,1.033638,0.000142,0.000795,0.000137,0,2015-08-21 01:08:20
417,35.20,26.79,25.94,60.04,1021.87,359.19,359.82,261.63,-2.660699,25.240345,72.964154,0.015293,-0.002899,1.033582,-0.000288,0.000999,0.000249,0,2015-08-21 01:08:31
418,35.27,26.78,25.94,60.18,1021.84,359.13,359.83,261.49,-2.740706,25.211615,73.094625,0.015376,-0.002984,1.033482,0.000090,-0.001406,0.000143,0,2015-08-21 01:08:40
419,35.28,26.78,25.94,60.01,1021.86,359.19,359.84,261.20,-2.861270,25.196049,72.993360,0.015238,-0.002946,1.033514,-0.000009,0.002279,-0.000092,0,2015-08-21 01:08:50
420,35.17,26.79,25.94,60.10,1021.85,359.19,359.85,261.40,-2.752455,25.204584,72.734485,0.015392,-0.003017,1.033482,0.000397,0.001549,-0.000059,0,2015-08-21 01:09:01
421,35.25,26.79,25.94,60.08,1021.83,359.14,359.85,261.14,-2.893410,25.193491,72.542495,0.015314,-0.002962,1.033410,0.000189,0.001039,-0.000253,0,2015-08-21 01:09:10
422,35.21,26.78,25.94,59.89,1021.83,359.24,359.84,261.16,-2.831809,25.129548,72.469541,0.015358,-0.002944,1.033463,-0.000069,0.001570,0.000229,0,2015-08-21 01:09:20
423,35.22,26.79,25.94,60.17,1021.82,359.12,359.82,262.03,-2.464311,25.234282,72.719923,0.015478,-0.002994,1.033381,-0.000116,-0.000154,0.000083,0,2015-08-21 01:09:31
424,35.11,26.80,25.94,60.11,1021.83,359.16,359.83,261.77,-2.584209,25.086843,72.213025,0.015285,-0.002930,1.033478,-0.000249,0.001357,0.000152,0,2015-08-21 01:09:40
425,35.16,26.78,25.95,59.95,1021.83,359.10,359.81,261.44,-2.767665,25.049863,72.794008,0.015291,-0.002887,1.033379,-0.000322,-0.002413,0.000217,0,2015-08-21 01:09:50
426,35.20,26.80,25.95,60.21,1021.84,359.15,359.83,261.25,-2.822114,25.091745,72.490977,0.015334,-0.002995,1.033536,-0.000229,-0.000716,0.000295,0,2015-08-21 01:10:01
427,35.16,26.80,25.95,60.21,1021.84,359.10,359.84,261.71,-2.602928,25.090788,72.637704,0.015213,-0.002801,1.033521,0.000083,0.000210,0.000128,0,2015-08-21 01:10:10
428,35.29,26.80,25.94,60.18,1021.83,359.25,359.85,261.46,-2.706420,24.905911,72.424778,0.015294,-0.002835,1.033636,0.000346,0.002334,-0.000089,0,2015-08-21 01:10:20
429,35.25,26.79,25.94,59.91,1021.83,359.22,359.87,261.35,-2.753245,24.940503,72.351728,0.015312,-0.002735,1.033484,0.000349,0.000260,-0.000074,0,2015-08-21 01:10:31
430,35.27,26.78,25.94,59.98,1021.82,359.09,359.85,261.53,-2.687232,25.105486,72.196235,0.015244,-0.002856,1.033474,0.000154,-0.000604,0.000091,0,2015-08-21 01:10:40
431,35.18,26.79,25.94,60.06,1021.82,359.13,359.84,261.36,-2.765010,25.047712,72.311286,0.015343,-0.002878,1.033455,0.000154,0.000867,0.000165,0,2015-08-21 01:10:50
432,35.20,26.80,25.94,60.03,1021.82,359.16,359.86,261.46,-2.718624,24.781397,72.538097,0.015382,-0.002905,1.033541,0.000434,0.000823,-0.000112,0,2015-08-21 01:11:01
433,35.15,26.79,25.94,60.16,1021.81,359.13,359.85,261.14,-2.821097,24.956185,72.934833,0.015269,-0.003030,1.033447,0.000441,-0.000482,-0.000115,0,2015-08-21 01:11:10
434,35.19,26.79,25.94,59.97,1021.79,359.09,359.85,261.14,-2.870334,25.025746,72.684786,0.015468,-0.002901,1.033541,0.000021,-0.000630,-0.000065,0,2015-08-21 01:11:20
435,35.18,26.80,25.94,60.04,1021.82,359.28,359.84,261.89,-2.463514,24.996329,72.718367,0.015420,-0.003056,1.033497,0.000072,0.001239,-0.000090,0,2015-08-21 01:11:31
436,35.16,26.78,25.95,60.08,1021.80,359.10,359.84,261.29,-2.850607,25.005480,72.834397,0.015363,-0.003161,1.033451,0.000201,-0.000614,-0.000124,0,2015-08-21 01:11:40
437,35.14,26.80,25.95,59.96,1021.82,359.17,359.84,260.35,-3.197689,24.958782,73.005845,0.015406,-0.002899,1.033405,-0.000114,-0.000573,0.000037,0,2015-08-21 01:11:50
438,35.14,26.79,25.95,60.04,1021.81,359.21,359.84,260.80,-2.968053,25.019807,72.603180,0.015330,-0.003081,1.033296,0.000176,0.000430,-0.000266,0,2015-08-21 01:12:01
439,35.21,26.79,25.95,60.04,1021.81,359.09,359.84,260.83,-2.993409,25.010820,72.506240,0.015334,-0.002935,1.033498,-0.000030,-0.000644,0.000144,0,2015-08-21 01:12:10
440,35.16,26.80,25.95,59.91,1021.82,359.11,359.84,261.44,-2.687659,25.057984,72.535081,0.015328,-0.002955,1.033255,0.000160,-0.001411,-0.000189,0,2015-08-21 01:12:20
441,35.21,26.80,25.95,59.84,1021.81,359.17,359.84,261.12,-2.896320,25.154576,72.595066,0.015364,-0.002834,1.033507,0.000211,0.000171,-0.000119,0,2015-08-21 01:12:31
442,35.20,26.80,25.95,59.83,1021.81,359.07,359.82,261.35,-2.753320,25.009387,73.145139,0.015317,-0.002960,1.033409,-0.000116,0.001181,-0.000035,0,2015-08-21 01:12:41
443,35.18,26.82,25.95,59.97,1021.83,359.13,359.84,261.51,-2.669247,25.104403,72.660103,0.015352,-0.002974,1.033445,0.000089,-0.002026,-0.000230,0,2015-08-21 01:12:50
444,35.12,26.80,25.95,60.03,1021.82,359.14,359.82,261.71,-2.595063,25.099010,72.793764,0.015424,-0.002971,1.033511,-0.000186,0.002378,0.000237,0,2015-08-21 01:13:01
445,35.22,26.79,25.95,59.98,1021.83,359.11,359.82,261.87,-2.553649,25.195732,72.852833,0.015415,-0.003086,1.033480,-0.000085,0.000853,-0.000081,0,2015-08-21 01:13:10
446,35.22,26.80,25.95,59.99,1021.82,359.12,359.83,261.18,-2.855917,25.028739,72.963247,0.015438,-0.002882,1.033506,-0.000209,0.001536,0.000020,0,2015-08-21 01:13:20
447,35.23,26.80,25.95,59.93,1021.83,359.17,359.82,261.02,-2.883656,24.824126,73.012901,0.015366,-0.002926,1.033562,-0.000197,0.000928,0.000026,0,2015-08-21 01:13:31
448,35.15,26.80,25.95,60.11,1021.82,359.06,359.82,261.17,-2.801312,24.856534,73.083760,0.015345,-0.002869,1.033421,-0.000105,-0.001706,0.000138,0,2015-08-21 01:13:40
449,35.09,26.80,25.94,59.96,1021.84,359.13,359.82,260.92,-2.905492,24.753077,73.328247,0.015410,-0.002973,1.033416,-0.000312,-0.000651,0.000063,0,2015-08-21 01:13:50
450,35.24,26.79,25.94,59.92,1021.82,359.31,359.83,260.99,-2.919472,24.983067,73.123734,0.015333,-0.003069,1.033484,0.000041,0.001957,0.000053,0,2015-08-21 01:14:01
451,35.14,26.79,25.94,59.88,1021.83,359.22,359.82,260.60,-3.103671,24.856247,72.923983,0.015341,-0.002899,1.033420,-0.000079,-0.000252,0.000120,0,2015-08-21 01:14:10
452,35.21,26.80,25.94,59.98,1021.84,359.08,359.82,260.39,-3.173573,24.819698,73.353523,0.015417,-0.002994,1.033470,-0.000198,-0.000253,0.000008,0,2015-08-21 01:14:20
453,35.18,26.80,25.93,59.96,1021.84,359.13,359.81,260.47,-3.100496,24.978338,73.319136,0.015344,-0.002914,1.033570,-0.000385,-0.001625,0.000358,0,2015-08-21 01:14:31
454,35.16,26.78,25.93,59.89,1021.84,359.09,359.81,260.93,-2.916559,24.768726,73.328551,0.015478,-0.003019,1.033485,-0.000297,-0.000061,0.000349,0,2015-08-21 01:14:40
455,35.15,26.77,25.93,59.83,1021.85,359.20,359.83,261.05,-2.827765,24.868723,73.208765,0.015318,-0.003028,1.033426,-0.000263,0.001569,0.000081,0,2015-08-21 01:14:50
456,35.12,26.78,25.92,59.93,1021.87,359.17,359.83,261.19,-2.833865,25.014501,73.169513,0.015328,-0.003085,1.033497,0.000037,0.000001,0.000131,0,2015-08-21 01:15:01
457,35.18,26.76,25.92,59.92,1021.85,359.11,359.83,261.26,-2.815493,25.149436,73.145953,0.015370,-0.002980,1.033455,-0.000291,0.000503,0.000212,0,2015-08-21 01:15:10
458,35.17,26.77,25.92,60.04,1021.85,359.11,359.83,261.27,-2.770408,24.953302,73.374555,0.015379,-0.002907,1.033469,-0.000481,-0.000090,0.000094,0,2015-08-21 01:15:20
459,35.24,26.79,25.92,59.95,1021.85,359.11,359.82,260.92,-2.926612,24.868033,73.385340,0.015354,-0.002962,1.033448,-0.000205,-0.000260,0.000163,0,2015-08-21 01:15:31
460,35.15,26.79,25.92,59.98,1021.86,359.12,359.83,261.10,-2.870071,24.951757,73.380174,0.015275,-0.002923,1.033541,-0.000086,0.002057,0.000152,0,2015-08-21 01:15:40
461,35.17,26.79,25.92,59.90,1021.85,359.24,359.84,261.00,-2.916542,25.045642,73.231194,0.015324,-0.002936,1.033352,-0.000204,-0.000689,0.000015,0,2015-08-21 01:15:51
462,35.15,26.78,25.92,59.96,1021.85,359.11,359.82,260.90,-2.940137,24.624505,73.153174,0.015341,-0.003104,1.033480,-0.000114,0.000004,0.000039,0,2015-08-21 01:16:01
463,35.27,26.77,25.92,59.83,1021.83,359.14,359.83,261.11,-2.750111,24.661825,72.948292,0.015298,-0.002923,1.033543,-0.000078,0.002329,0.000123,0,2015-08-21 01:16:10
464,35.17,26.77,25.92,59.97,1021.81,359.10,359.83,261.31,-2.771985,24.789432,73.122092,0.015342,-0.003035,1.033566,0.000016,0.000136,-0.000004,0,2015-08-21 01:16:21
465,35.15,26.78,25.92,60.01,1021.83,359.18,359.83,260.97,-2.876447,24.818172,73.182016,0.015296,-0.002980,1.033503,0.000024,-0.000240,0.000051,0,2015-08-21 01:16:30
466,35.17,26.77,25.92,59.92,1021.83,359.22,359.82,261.57,-2.607255,24.733408,73.170051,0.015321,-0.003048,1.033439,-0.000370,0.000515,-0.000009,0,2015-08-21 01:16:40
467,35.17,26.76,25.92,59.96,1021.85,359.14,359.81,261.54,-2.636222,24.575905,73.177091,0.015253,-0.003129,1.033462,-0.000200,-0.000099,0.000148,0,2015-08-21 01:16:51
468,35.13,26.76,25.91,59.84,1021.84,359.13,359.83,261.10,-2.748833,24.562131,73.208696,0.015334,-0.003015,1.033378,-0.000065,0.000593,0.000335,0,2015-08-21 01:17:00
469,35.27,26.77,25.91,59.68,1021.83,359.09,359.83,261.22,-2.754305,24.535828,73.222060,0.015341,-0.003003,1.033461,-0.000133,-0.002254,0.000122,0,2015-08-21 01:17:10
470,35.16,26.77,25.91,59.84,1021.85,359.17,359.83,260.96,-2.889421,24.590048,72.916996,0.015231,-0.002932,1.033471,0.000023,-0.001987,-0.000009,0,2015-08-21 01:17:21
471,35.18,26.77,25.91,60.01,1021.84,359.14,359.84,261.53,-2.663959,24.885366,73.049596,0.015456,-0.003045,1.033584,0.000152,-0.000636,0.000236,0,2015-08-21 01:17:30
472,35.20,26.77,25.91,59.94,1021.85,359.17,359.85,261.25,-2.731546,24.783036,72.826085,0.015323,-0.002989,1.033447,-0.000029,-0.000700,-0.000180,0,2015-08-21 01:17:40
473,35.15,26.78,25.91,59.75,1021.85,359.08,359.82,260.79,-3.052991,24.990119,72.727345,0.015199,-0.003057,1.033421,0.000007,0.001017,0.000260,0,2015-08-21 01:17:51
474,35.14,26.76,25.90,59.86,1021.84,359.13,359.83,260.88,-2.942743,25.005333,72.891733,0.015320,-0.003019,1.033448,-0.000082,-0.001541,0.000154,0,2015-08-21 01:18:00
475,35.14,26.75,25.90,59.82,1021.85,359.13,359.85,260.96,-2.935946,24.992513,73.249716,0.015368,-0.003016,1.033329,0.000279,0.002443,-0.000100,0,2015-08-21 01:18:10
476,35.13,26.75,25.90,59.89,1021.82,359.20,359.84,260.75,-3.000455,24.801682,72.925610,0.015270,-0.003040,1.033463,0.000388,0.001402,0.000020,0,2015-08-21 01:18:21
477,35.12,26.76,25.90,59.78,1021.84,359.19,359.85,261.14,-2.758363,24.802204,72.786461,0.015341,-0.003050,1.033561,0.000242,-0.000139,-0.000194,0,2015-08-21 01:18:30
478,35.09,26.75,25.90,59.85,1021.85,359.21,359.84,261.20,-2.833481,24.886720,72.739549,0.015231,-0.002842,1.033392,0.000168,0.000466,-0.000290,0,2015-08-21 01:18:40
479,35.19,26.76,25.90,59.79,1021.85,359.20,359.85,260.97,-2.897654,24.849447,72.824408,0.015307,-0.003065,1.033393,0.000410,-0.000299,-0.000245,0,2015-08-21 01:18:51
480,35.11,26.76,25.90,59.80,1021.85,359.25,359.86,261.27,-2.719956,24.572344,72.815553,0.015383,-0.002997,1.033369,0.000458,0.000500,-0.000278,0,2015-08-21 01:19:00
481,35.14,26.76,25.89,59.94,1021.86,359.19,359.86,260.98,-2.874474,24.603017,72.817810,0.015336,-0.002958,1.033443,0.000450,0.002665,-0.000341,0,2015-08-21 01:19:10
482,35.16,26.76,25.90,59.84,1021.86,359.13,359.85,261.18,-2.796314,24.719210,72.782554,0.015316,-0.002992,1.033395,0.000294,0.001547,-0.000303,0,2015-08-21 01:19:21
483,35.09,26.76,25.90,59.87,1021.85,359.20,359.84,261.23,-2.742651,24.640661,72.764723,0.015195,-0.002937,1.033403,0.000194,-0.000114,-0.000194,0,2015-08-21 01:19:30
484,35.15,26.77,25.89,59.90,1021.86,359.13,359.83,260.64,-3.080965,24.667165,72.753445,0.015356,-0.003061,1.033481,-0.000057,0.001402,0.000044,0,2015-08-21 01:19:40
485,35.07,26.77,25.89,59.89,1021.85,359.26,359.84,260.66,-3.013213,24.502255,72.785986,0.015209,-0.003034,1.033428,0.000162,0.003561,-0.000226,0,2015-08-21 01:19:51
486,35.19,26.75,25.89,59.83,1021.84,359.07,359.83,260.96,-2.799855,24.719869,72.752591,0.015513,-0.003120,1.033342,-0.000031,-0.002596,0.000178,0,2015-08-21 01:20:00
487,35.15,26.76,25.89,59.96,1021.85,359.14,359.83,261.56,-2.572654,24.385327,72.853643,0.015397,-0.003031,1.033522,0.000065,-0.000527,-0.000040,0,2015-08-21 01:20:10
488,35.15,26.76,25.89,59.97,1021.85,359.09,359.83,261.41,-2.686727,24.617423,72.776656,0.015269,-0.002987,1.033466,-0.000349,-0.000449,0.000075,0,2015-08-21 01:20:21
489,35.12,26.75,25.89,59.84,1021.85,359.08,359.83,261.37,-2.700371,24.560610,72.805240,0.015312,-0.003016,1.033488,0.000056,-0.000258,-0.000003,0,2015-08-21 01:20:30
490,35.22,26.76,25.89,59.82,1021.84,359.19,359.84,260.83,-2.915320,24.454419,72.730120,0.015241,-0.002990,1.033263,0.000265,0.001576,0.000004,0,2015-08-21 01:20:40
491,35.18,26.77,25.90,59.82,1021.86,359.17,359.85,261.11,-2.797503,24.655372,72.736706,0.015262,-0.002928,1.033485,0.000182,0.002107,-0.000195,0,2015-08-21 01:20:51
492,35.12,26.76,25.90,59.84,1021.86,359.09,359.86,261.35,-2.729257,24.741216,72.592375,0.015291,-0.003007,1.033473,0.000503,0.001020,-0.000231,0,2015-08-21 01:21:00
493,35.12,26.76,25.90,59.81,1021.84,359.20,359.86,261.31,-2.768819,24.808938,72.658787,0.015180,-0.003083,1.033552,0.000446,0.001094,-0.000183,0,2015-08-21 01:21:10
494,35.10,26.76,25.90,59.90,1021.84,359.18,359.86,260.97,-2.885349,24.704462,72.622897,0.015250,-0.002940,1.033483,0.000387,0.001553,-0.000230,0,2015-08-21 01:21:21
495,35.20,26.75,25.90,59.86,1021.82,359.08,359.85,261.16,-2.819334,24.794669,72.701888,0.015300,-0.003017,1.033494,0.000329,-0.004103,-0.000024,0,2015-08-21 01:21:30
496,35.13,26.75,25.90,59.73,1021.82,359.19,359.85,261.19,-2.794852,24.834990,72.540448,0.015337,-0.003031,1.033280,0.000399,0.001604,-0.000067,0,2015-08-21 01:21:40
497,35.20,26.77,25.90,59.85,1021.83,359.09,359.86,261.07,-2.867073,24.858430,72.537467,0.015309,-0.002926,1.033283,0.000469,-0.001352,-0.000211,0,2015-08-21 01:21:51
498,35.16,26.76,25.90,59.72,1021.79,359.11,359.84,261.77,-2.502436,24.853221,72.861799,0.015374,-0.003006,1.033313,0.000159,0.000853,-0.000042,0,2015-08-21 01:22:01
499,35.15,26.76,25.90,60.01,1021.80,359.12,359.82,261.50,-2.726603,25.052748,73.017750,0.015221,-0.003003,1.033534,-0.000260,-0.000921,0.000057,0,2015-08-21 01:22:10
500,35.12,26.78,25.90,59.68,1021.82,359.07,359.82,260.96,-2.962043,24.825606,72.709755,0.015336,-0.003030,1.033394,-0.000327,0.001111,0.000074,0,2015-08-21 01:22:20
501,35.14,26.77,25.90,59.90,1021.82,359.09,359.82,260.68,-3.018622,24.943498,72.973592,0.015304,-0.002884,1.033277,-0.000098,-0.001412,0.000186,0,2015-08-21 01:22:31
502,35.15,26.77,25.90,59.93,1021.80,359.15,359.84,261.11,-2.883828,24.810048,73.080984,0.015288,-0.002797,1.033436,0.000041,0.001410,0.000161,0,2015-08-21 01:22:40
503,35.13,26.77,25.90,59.93,1021.82,359.03,359.81,260.81,-2.942534,24.832800,73.150030,0.015184,-0.002894,1.033430,-0.000445,-0.000916,0.000212,0,2015-08-21 01:22:50
504,35.17,26.77,25.91,60.00,1021.84,359.14,359.81,260.63,-3.065674,24.655314,72.749689,0.015225,-0.002798,1.033449,-0.000338,-0.002217,0.000182,0,2015-08-21 01:23:01
505,35.21,26.78,25.90,59.92,1021.81,359.06,359.84,261.04,-2.848108,24.775558,72.593555,0.015312,-0.002844,1.033448,-0.000078,-0.000189,0.000250,0,2015-08-21 01:23:10
506,35.14,26.77,25.90,59.87,1021.82,359.08,359.83,260.74,-3.028697,24.793202,72.968539,0.015268,-0.002680,1.033409,-0.000274,-0.000143,0.000365,0,2015-08-21 01:23:21
507,35.12,26.77,25.91,60.00,1021.80,359.09,359.86,260.63,-3.030721,24.737296,72.985156,0.015292,-0.002867,1.033463,-0.000035,0.000494,0.000051,0,2015-08-21 01:23:31
508,35.13,26.76,25.91,60.01,1021.81,359.18,359.84,260.75,-2.986760,24.680656,72.949734,0.015216,-0.002903,1.033496,-0.000022,-0.002415,-0.000001,0,2015-08-21 01:23:40
509,35.17,26.76,25.91,59.95,1021.82,359.08,359.83,261.07,-2.853340,24.837676,73.247117,0.015092,-0.002769,1.033484,-0.000062,0.000638,0.000372,0,2015-08-21 01:23:51
510,35.13,26.77,25.91,59.83,1021.81,359.13,359.82,261.33,-2.764794,25.070324,73.102373,0.015238,-0.002814,1.033376,-0.000329,0.001121,0.000264,0,2015-08-21 01:24:00
511,35.25,26.77,25.91,60.00,1021.82,359.16,359.83,261.07,-2.931550,24.964143,72.826428,0.015317,-0.002808,1.033512,-0.000392,0.000814,0.000339,0,2015-08-21 01:24:10
512,35.13,26.79,25.91,60.05,1021.80,359.22,359.83,261.11,-2.828955,24.992237,73.122692,0.015146,-0.002808,1.033513,-0.000088,0.002060,0.000017,0,2015-08-21 01:24:21
513,35.21,26.77,25.91,59.85,1021.80,359.13,359.82,261.67,-2.612221,25.179049,73.156991,0.015322,-0.002850,1.033495,-0.000246,-0.002258,0.000283,0,2015-08-21 01:24:30
514,35.10,26.78,25.91,59.98,1021.77,359.15,359.84,261.26,-2.824384,24.865189,73.077859,0.015363,-0.002853,1.033396,-0.000285,-0.000788,0.000334,0,2015-08-21 01:24:40
515,35.10,26.77,25.91,60.03,1021.80,359.16,359.84,260.86,-2.963617,24.887639,72.842771,0.015182,-0.002946,1.033501,0.000085,0.000740,0.000121,0,2015-08-21 01:24:51
516,35.10,26.77,25.91,59.83,1021.78,359.15,359.84,261.25,-2.758016,24.796118,72.650758,0.015239,-0.002829,1.033310,0.000030,0.001534,-0.000043,0,2015-08-21 01:25:00
517,35.11,26.78,25.91,60.07,1021.77,359.15,359.84,261.24,-2.800839,24.797863,72.599996,0.015352,-0.002828,1.033401,-0.000122,0.000221,-0.000072,0,2015-08-21 01:25:10
518,35.17,26.77,25.91,59.94,1021.76,359.20,359.84,261.11,-2.851403,24.967824,72.867286,0.015340,-0.002902,1.033481,-0.000056,-0.001885,0.000164,0,2015-08-21 01:25:21
519,35.18,26.76,25.91,59.89,1021.78,359.12,359.83,261.13,-2.845085,24.831950,72.752264,0.015218,-0.003052,1.033518,-0.000145,-0.000639,0.000202,0,2015-08-21 01:25:30
520,35.17,26.77,25.91,60.01,1021.79,359.10,359.83,260.48,-3.146697,24.775813,72.734863,0.015206,-0.002882,1.033383,-0.000088,0.002138,0.000212,0,2015-08-21 01:25:40
521,35.18,26.76,25.91,60.01,1021.79,359.12,359.84,260.63,-3.068470,24.928347,73.000408,0.015340,-0.002961,1.033560,-0.000113,-0.000438,0.000130,0,2015-08-21 01:25:51
522,35.17,26.78,25.91,60.11,1021.78,358.98,359.84,260.80,-2.947733,24.923456,73.154654,0.015325,-0.002921,1.033465,0.000135,-0.000383,-0.000137,0,2015-08-21 01:26:00
523,35.17,26.78,25.91,59.93,1021.78,359.23,359.84,261.05,-2.892661,24.962036,72.817702,0.015358,-0.002987,1.033399,-0.000007,0.001847,-0.000017,0,2015-08-21 01:26:10
524,35.08,26.77,25.91,59.87,1021.78,359.19,359.84,260.67,-3.066646,24.848290,72.765665,0.015273,-0.002862,1.033427,0.000081,-0.000983,-0.000068,0,2015-08-21 01:26:21
525,35.19,26.78,25.92,59.90,1021.78,359.14,359.84,260.64,-3.003596,24.630151,72.749843,0.015202,-0.002903,1.033496,-0.000018,-0.000598,0.000098,0,2015-08-21 01:26:30
526,35.21,26.77,25.92,59.88,1021.78,359.17,359.83,260.75,-2.956417,24.584207,72.696392,0.015175,-0.002797,1.033561,-0.000100,0.000962,0.000035,0,2015-08-21 01:26:40
527,35.17,26.79,25.92,59.96,1021.78,359.19,359.84,260.73,-2.932983,24.390011,72.598071,0.015249,-0.002973,1.033398,-0.000182,0.000601,-0.000181,0,2015-08-21 01:26:51
528,35.10,26.78,25.92,59.87,1021.78,359.14,359.84,260.50,-3.116929,24.632278,72.670621,0.015361,-0.002901,1.033434,-0.000060,0.000388,0.000065,0,2015-08-21 01:27:00
529,35.10,26.79,25.92,59.88,1021.79,359.15,359.85,260.58,-3.036033,24.755146,72.527312,0.015243,-0.002748,1.033539,0.000047,0.000216,-0.000090,0,2015-08-21 01:27:11
530,35.21,26.78,25.92,59.98,1021.79,359.17,359.84,260.97,-2.885257,24.737251,72.723295,0.015182,-0.002700,1.033401,-0.000004,-0.000700,0.000032,0,2015-08-21 01:27:21
531,35.11,26.78,25.92,60.05,1021.77,359.18,359.82,260.82,-2.955088,24.839037,73.171564,0.015191,-0.002840,1.033539,-0.000217,0.000630,0.000084,0,2015-08-21 01:27:30
532,35.14,26.77,25.92,59.81,1021.76,359.19,359.83,260.80,-3.052193,25.096956,73.248725,0.015272,-0.002920,1.033411,-0.000265,0.000133,0.000057,0,2015-08-21 01:27:41
533,35.12,26.78,25.92,59.71,1021.78,359.15,359.82,260.57,-3.115363,25.049446,72.996805,0.015250,-0.003000,1.033347,-0.000069,-0.001953,0.000220,0,2015-08-21 01:27:51
534,35.17,26.78,25.92,59.77,1021.77,359.13,359.82,260.36,-3.210329,24.937000,72.601828,0.015433,-0.003015,1.033602,-0.000286,0.000643,0.000402,0,2015-08-21 01:28:00
535,35.12,26.78,25.92,59.95,1021.78,359.16,359.83,261.07,-2.877720,25.227035,72.675710,0.015211,-0.002932,1.033287,0.000042,-0.000654,0.000550,0,2015-08-21 01:28:11
536,35.10,26.79,25.92,59.84,1021.77,359.16,359.83,261.14,-2.924237,25.199318,72.677430,0.015383,-0.002821,1.033353,-0.000137,0.000676,0.000195,0,2015-08-21 01:28:21
537,35.14,26.78,25.92,59.82,1021.74,359.16,359.85,261.17,-2.812583,25.022880,72.878931,0.015428,-0.003017,1.033372,0.000242,0.001701,0.000133,0,2015-08-21 01:28:30
538,35.11,26.78,25.92,59.91,1021.75,359.18,359.84,261.28,-2.808219,24.939883,72.800941,0.015384,-0.002901,1.033422,-0.000133,-0.000045,0.000142,0,2015-08-21 01:28:41
539,35.16,26.79,25.92,59.85,1021.76,359.19,359.83,260.38,-3.170458,24.737868,72.643900,0.015329,-0.002876,1.033512,-0.000207,-0.001947,0.000109,0,2015-08-21 01:28:50
540,35.14,26.77,25.92,59.82,1021.75,359.17,359.82,260.46,-3.107894,24.814029,72.525840,0.015289,-0.002998,1.033421,-0.000311,0.000398,0.000134,0,2015-08-21 01:29:00
541,35.14,26.77,25.92,60.02,1021.77,359.16,359.82,260.62,-3.098413,24.919259,72.357999,0.015481,-0.002873,1.033466,-0.000203,-0.001359,0.000209,0,2015-08-21 01:29:11
542,35.22,26.77,25.92,60.14,1021.77,359.17,359.84,260.38,-3.195629,24.961651,72.484543,0.015350,-0.003036,1.033460,0.000229,0.000636,0.000203,0,2015-08-21 01:29:20
543,35.12,26.78,25.92,59.93,1021.75,359.10,359.83,260.46,-3.084559,24.752835,72.497711,0.015379,-0.003036,1.033421,0.000044,-0.001472,0.000188,0,2015-08-21 01:29:30
544,35.13,26.78,25.92,59.94,1021.78,359.13,359.81,260.90,-2.912422,24.766540,72.721271,0.015473,-0.003012,1.033332,-0.000284,0.000364,0.000080,0,2015-08-21 01:29:41
545,35.14,26.79,25.92,60.04,1021.76,359.20,359.82,261.05,-2.909675,25.017899,72.640092,0.015334,-0.002890,1.033302,-0.000435,0.000508,0.000031,0,2015-08-21 01:29:50
546,35.15,26.78,25.92,59.92,1021.77,359.11,359.82,260.65,-3.058755,24.865898,72.834975,0.015448,-0.002774,1.033295,-0.000345,-0.001797,0.000203,0,2015-08-21 01:30:00
547,35.14,26.78,25.93,59.89,1021.78,359.18,359.84,260.77,-2.991482,24.825157,72.601488,0.015511,-0.002857,1.033338,-0.000204,0.002859,0.000012,0,2015-08-21 01:30:11
548,35.13,26.79,25.93,60.03,1021.80,359.16,359.84,260.38,-3.152059,24.824418,72.986886,0.015211,-0.002874,1.033405,0.000062,0.001315,-0.000091,0,2015-08-21 01:30:20
549,35.12,26.80,25.93,60.01,1021.78,359.11,359.83,260.75,-3.030767,25.109796,72.841858,0.015334,-0.002901,1.033484,0.000158,-0.000919,-0.000105,0,2015-08-21 01:30:30
550,35.16,26.79,25.93,60.14,1021.79,359.14,359.84,260.30,-3.225375,25.031638,72.683682,0.015330,-0.002951,1.033421,0.000111,-0.000651,-0.000062,0,2015-08-21 01:30:41
551,35.11,26.79,25.93,60.14,1021.77,359.11,359.84,260.70,-3.070688,24.949020,72.712095,0.015370,-0.002969,1.033231,-0.000038,-0.001755,0.000095,0,2015-08-21 01:30:50
552,35.18,26.79,25.93,60.18,1021.76,359.05,359.83,260.23,-3.226221,24.742490,72.754156,0.015439,-0.003088,1.033280,-0.000169,-0.000789,0.000125,0,2015-08-21 01:31:00
553,35.12,26.80,25.93,60.37,1021.77,359.15,359.82,260.88,-2.936469,24.945672,72.601685,0.015316,-0.002998,1.033267,-0.000326,0.000399,0.000495,0,2015-08-21 01:31:11
554,35.15,26.78,25.93,60.31,1021.75,359.12,359.83,260.96,-2.907653,24.714379,72.962801,0.015240,-0.002962,1.033450,-0.000178,-0.000254,0.000177,0,2015-08-21 01:31:20
555,35.21,26.79,25.94,60.24,1021.77,359.13,359.82,260.60,-3.062250,24.913701,72.853504,0.015217,-0.003044,1.033389,-0.000457,0.003689,0.000181,0,2015-08-21 01:31:30
556,35.22,26.79,25.94,60.14,1021.77,359.10,359.82,260.82,-2.974356,24.850254,72.725863,0.015374,-0.003085,1.033376,-0.000093,0.000536,0.000164,0,2015-08-21 01:31:41
557,35.21,26.80,25.94,60.34,1021.77,359.11,359.83,260.71,-3.089585,25.099058,72.502067,0.015493,-0.003116,1.033403,-0.000214,-0.001377,-0.000237,0,2015-08-21 01:31:50
558,35.20,26.80,25.94,60.28,1021.77,359.14,359.84,260.28,-3.184937,24.744055,72.433265,0.015370,-0.003019,1.033410,0.000031,0.000941,-0.000196,0,2015-08-21 01:32:00
559,35.11,26.80,25.94,60.36,1021.78,359.13,359.82,259.69,-3.484409,24.738525,72.223025,0.015267,-0.002926,1.033533,-0.000266,-0.000107,0.000185,0,2015-08-21 01:32:11
560,35.16,26.80,25.94,60.41,1021.75,359.11,359.82,260.06,-3.302033,24.943841,72.444049,0.015297,-0.003197,1.033530,-0.000235,-0.001463,0.000302,0,2015-08-21 01:32:20
561,35.16,26.80,25.94,60.37,1021.76,359.14,359.83,260.03,-3.325031,24.786251,72.644846,0.015390,-0.003109,1.033460,0.000144,-0.001396,-0.000026,0,2015-08-21 01:32:30
562,35.25,26.79,25.94,60.50,1021.75,359.11,359.82,260.51,-3.121998,24.923286,72.572279,0.015519,-0.003197,1.033478,-0.000290,-0.001568,0.000203,0,2015-08-21 01:32:41
563,35.21,26.80,25.94,60.47,1021.77,359.24,359.83,260.41,-3.167126,24.951070,72.407423,0.015488,-0.003028,1.033394,-0.000239,0.003743,0.000087,0,2015-08-21 01:32:50
564,35.16,26.80,25.95,60.41,1021.78,359.17,359.85,260.16,-3.230932,24.716827,72.368779,0.015400,-0.003028,1.033382,0.000073,0.001326,-0.000135,0,2015-08-21 01:33:01
565,35.30,26.81,25.95,60.52,1021.77,359.16,359.83,260.26,-3.208316,24.867954,72.313276,0.015484,-0.003108,1.033469,-0.000013,-0.000764,-0.000012,0,2015-08-21 01:33:11
566,35.23,26.81,25.95,60.56,1021.77,359.12,359.85,260.49,-3.090727,24.626007,72.457733,0.015432,-0.003009,1.033283,0.000189,0.002213,0.000076,0,2015-08-21 01:33:20
567,35.17,26.81,25.95,60.62,1021.76,359.13,359.85,260.04,-3.281366,24.629687,72.508365,0.015488,-0.002989,1.033275,0.000150,-0.001201,-0.000220,0,2015-08-21 01:33:40
568,35.24,26.81,25.95,60.74,1021.78,359.11,359.83,259.98,-3.302095,24.670932,72.700453,0.015408,-0.002987,1.033391,0.000025,-0.000021,0.000016,0,2015-08-21 01:33:50
569,35.25,26.80,25.95,60.68,1021.78,359.19,359.82,260.17,-3.219239,24.700087,72.765576,0.015428,-0.003003,1.033362,-0.000148,0.000279,-0.000009,0,2015-08-21 01:34:01
570,35.21,26.79,25.95,60.77,1021.78,359.13,359.82,259.97,-3.327629,24.594224,72.918589,0.015435,-0.003172,1.033365,-0.000328,-0.000808,-0.000233,0,2015-08-21 01:34:10
571,35.24,26.80,25.95,60.69,1021.79,359.14,359.82,260.00,-3.293263,24.600427,72.707584,0.015523,-0.003033,1.033476,-0.000335,0.000359,0.000162,0,2015-08-21 01:34:20
572,35.20,26.81,25.95,60.72,1021.78,359.12,359.83,259.73,-3.447787,24.839818,73.012276,0.015410,-0.003152,1.033370,0.000158,0.000235,-0.000113,0,2015-08-21 01:34:31
573,35.21,26.80,25.95,60.79,1021.79,359.18,359.84,259.57,-3.511620,24.814470,72.948225,0.015410,-0.003051,1.033360,-0.000056,0.000880,-0.000297,0,2015-08-21 01:34:40
574,35.12,26.81,25.95,60.67,1021.78,359.12,359.83,259.71,-3.463586,24.981187,72.873420,0.015506,-0.002930,1.033491,0.000075,-0.001076,0.000027,0,2015-08-21 01:34:50
575,35.28,26.81,25.95,60.90,1021.80,359.05,359.83,259.68,-3.496375,24.834736,72.802923,0.015482,-0.002981,1.033470,0.000096,-0.003942,0.000058,0,2015-08-21 01:35:00
576,35.22,26.81,25.95,60.95,1021.80,359.12,359.82,260.19,-3.292411,24.819425,72.839597,0.015327,-0.003033,1.033492,-0.000227,0.000484,0.000196,0,2015-08-21 01:35:11
577,35.23,26.82,25.95,60.98,1021.80,359.21,359.83,259.82,-3.407174,24.935882,72.769299,0.015474,-0.002996,1.033333,-0.000169,0.002148,0.000014,0,2015-08-21 01:35:20
578,35.17,26.80,25.95,60.93,1021.79,359.15,359.83,259.52,-3.568688,24.931313,72.792706,0.015497,-0.003002,1.033393,0.000002,0.000161,-0.000032,0,2015-08-21 01:35:31
579,35.21,26.81,25.96,60.97,1021.80,359.14,359.84,259.94,-3.428531,25.131919,73.009460,0.015426,-0.003124,1.033433,0.000364,-0.001175,-0.000067,0,2015-08-21 01:35:40
580,35.20,26.83,25.96,61.01,1021.80,359.22,359.84,259.75,-3.455138,24.991516,72.926745,0.015532,-0.003053,1.033340,0.000241,0.000209,0.000069,0,2015-08-21 01:35:50
581,35.26,26.81,25.96,60.90,1021.79,359.14,359.85,259.47,-3.654279,25.089135,73.142040,0.015586,-0.003050,1.033316,0.000279,-0.000237,-0.000089,0,2015-08-21 01:36:01
582,35.24,26.81,25.96,61.02,1021.77,359.30,359.85,259.72,-3.422866,24.920235,72.578997,0.015513,-0.003003,1.033342,0.000275,0.001659,-0.000115,0,2015-08-21 01:36:10
583,35.23,26.81,25.97,60.99,1021.76,359.15,359.84,259.62,-3.477858,24.618624,72.563626,0.015496,-0.003039,1.033253,0.000234,0.002154,-0.000048,0,2015-08-21 01:36:20
584,35.23,26.82,25.97,61.00,1021.78,359.25,359.85,259.80,-3.366601,24.785363,72.695550,0.015510,-0.003026,1.033263,0.000296,0.002038,-0.000250,0,2015-08-21 01:36:31
585,35.17,26.82,25.97,61.01,1021.78,359.14,359.84,259.76,-3.500648,24.993718,72.770134,0.015320,-0.002923,1.033295,0.000203,0.000274,-0.000229,0,2015-08-21 01:36:40
586,35.20,26.83,25.97,61.16,1021.79,359.08,359.85,259.38,-3.558478,24.630090,72.785026,0.015470,-0.002987,1.033320,0.000220,-0.000534,-0.000301,0,2015-08-21 01:36:50
587,35.27,26.82,25.97,61.09,1021.81,359.14,359.87,259.39,-3.510250,24.426243,72.831829,0.015392,-0.003001,1.033452,0.000596,0.000413,-0.000144,0,2015-08-21 01:37:01
588,35.22,26.82,25.98,61.17,1021.81,359.26,359.86,259.16,-3.669648,24.455095,73.030051,0.015467,-0.002923,1.033386,0.000138,0.001858,-0.000244,0,2015-08-21 01:37:10
589,35.33,26.83,25.98,61.10,1021.80,359.11,359.84,259.20,-3.576324,24.415662,72.540279,0.015337,-0.003009,1.033371,0.000207,-0.000054,-0.000052,0,2015-08-21 01:37:20
590,35.19,26.82,25.98,61.04,1021.81,359.15,359.85,259.81,-3.276420,24.049351,72.734773,0.015442,-0.003022,1.033411,0.000115,0.001255,-0.000161,0,2015-08-21 01:37:31
591,35.33,26.82,25.98,61.19,1021.81,359.14,359.85,259.68,-3.384043,24.309695,72.735922,0.015336,-0.002951,1.033394,0.000119,-0.002826,-0.000112,0,2015-08-21 01:37:40
592,35.25,26.84,25.98,61.21,1021.84,359.16,359.83,259.72,-3.394491,24.452735,72.779556,0.015591,-0.002903,1.033430,-0.000092,0.001767,0.000052,0,2015-08-21 01:37:50
593,35.19,26.83,25.98,61.23,1021.83,359.18,359.83,259.70,-3.400445,24.545256,72.424417,0.015390,-0.002961,1.033395,0.000038,-0.001344,-0.000075,0,2015-08-21 01:38:01
594,35.30,26.85,25.98,61.23,1021.81,359.14,359.85,259.57,-3.460772,24.491661,72.405873,0.015416,-0.002897,1.033293,0.000059,0.000708,-0.000165,0,2015-08-21 01:38:10
595,35.22,26.85,25.99,61.35,1021.82,359.18,359.84,259.51,-3.485855,24.547756,72.638530,0.015372,-0.003038,1.033278,-0.000082,-0.001248,-0.000344,0,2015-08-21 01:38:21
596,35.30,26.83,25.99,61.22,1021.82,359.19,359.84,259.78,-3.394578,24.427830,72.902191,0.015492,-0.003083,1.033272,-0.000127,0.000923,-0.000014,0,2015-08-21 01:38:31
597,35.28,26.84,25.99,61.24,1021.82,359.10,359.83,259.68,-3.439781,24.639969,72.797323,0.015300,-0.003012,1.033436,0.000059,0.001351,-0.000089,0,2015-08-21 01:38:40
598,35.23,26.85,25.99,61.28,1021.83,359.07,359.83,259.77,-3.353835,24.525264,72.832880,0.015204,-0.002867,1.033517,-0.000362,-0.001274,0.000011,0,2015-08-21 01:38:50
599,35.22,26.85,25.99,61.23,1021.83,359.10,359.85,260.23,-3.192998,24.635427,73.089359,0.015410,-0.002932,1.033358,0.000118,0.000872,-0.000201,0,2015-08-21 01:39:00
600,35.30,26.86,26.00,61.24,1021.85,359.15,359.83,259.94,-3.356340,24.608404,73.214492,0.015465,-0.002975,1.033472,0.000001,0.000659,0.000039,0,2015-08-21 01:39:10
601,35.30,26.86,26.00,61.42,1021.84,359.13,359.83,259.52,-3.504956,24.464836,73.025895,0.015394,-0.002983,1.033419,-0.000003,-0.000758,-0.000117,0,2015-08-21 01:39:21
602,35.25,26.86,26.00,61.38,1021.81,359.17,359.84,259.30,-3.592651,24.605111,72.829102,0.015292,-0.002890,1.033515,0.000015,0.000874,-0.000312,0,2015-08-21 01:39:31
603,35.33,26.86,26.00,61.21,1021.79,359.15,359.84,259.31,-3.557513,24.446769,72.852960,0.015522,-0.002830,1.033392,-0.000164,0.002004,-0.000098,0,2015-08-21 01:39:40
604,35.25,26.85,26.01,61.27,1021.83,359.06,359.83,259.80,-3.378601,24.655240,73.017675,0.015489,-0.002871,1.033472,-0.000445,-0.003284,0.000259,0,2015-08-21 01:39:51
605,35.28,26.85,26.01,61.36,1021.82,359.14,359.82,259.45,-3.565514,24.653447,73.034627,0.015479,-0.002899,1.033286,-0.000343,0.000581,0.000181,0,2015-08-21 01:40:00
606,35.36,26.87,26.01,61.30,1021.82,359.16,359.83,259.22,-3.637087,24.742946,73.213821,0.015432,-0.002783,1.033465,-0.000107,0.001903,-0.000014,0,2015-08-21 01:40:10
607,35.24,26.87,26.01,61.44,1021.82,359.22,359.85,259.67,-3.431795,24.800861,73.288692,0.015449,-0.002844,1.033269,0.000216,-0.001943,-0.000190,0,2015-08-21 01:40:21
608,35.24,26.87,26.01,61.38,1021.81,359.15,359.84,259.78,-3.446983,24.990416,73.295886,0.015591,-0.002951,1.033313,-0.000117,0.000511,0.000042,0,2015-08-21 01:40:31
609,35.32,26.87,26.02,61.45,1021.83,359.12,359.82,259.88,-3.336694,24.656031,73.263065,0.015421,-0.002955,1.033297,-0.000360,0.000332,0.000294,0,2015-08-21 01:40:40
610,35.23,26.88,26.02,61.23,1021.84,359.12,359.82,260.05,-3.244192,24.755171,73.293803,0.015596,-0.002969,1.033308,-0.000280,0.003182,0.000141,0,2015-08-21 01:40:50
611,35.34,26.87,26.02,61.44,1021.84,359.11,359.83,260.35,-3.161374,24.760793,73.117794,0.015596,-0.002942,1.033386,-0.000171,-0.002592,0.000111,0,2015-08-21 01:41:01
612,35.31,26.88,26.02,61.49,1021.84,359.15,359.83,259.81,-3.355030,24.607194,72.766484,0.015496,-0.002835,1.033399,0.000195,0.000229,-0.000120,0,2015-08-21 01:41:10
613,35.27,26.88,26.02,61.49,1021.81,359.19,359.84,260.62,-2.997451,24.632911,72.775201,0.015462,-0.002894,1.033426,0.000199,0.000310,-0.000379,0,2015-08-21 01:41:20
614,35.25,26.88,26.03,61.35,1021.83,359.12,359.85,260.35,-3.159750,24.578670,72.631694,0.015463,-0.002813,1.033506,-0.000006,0.000841,-0.000148,0,2015-08-21 01:41:31
615,35.30,26.88,26.03,61.36,1021.82,359.18,359.84,259.93,-3.320598,24.625639,72.682222,0.015464,-0.002933,1.033387,-0.000140,0.001140,-0.000302,0,2015-08-21 01:41:40
616,35.28,26.89,26.03,61.59,1021.81,359.13,359.85,259.99,-3.276133,24.731822,72.813497,0.015449,-0.002869,1.033429,0.000252,0.001416,-0.000128,0,2015-08-21 01:41:51
617,35.35,26.88,26.03,61.48,1021.82,359.22,359.85,259.79,-3.465265,24.819109,73.003628,0.015401,-0.002977,1.033443,0.000252,0.001013,-0.000501,0,2015-08-21 01:42:00
618,35.26,26.87,26.03,61.54,1021.83,359.25,359.84,259.85,-3.380999,24.913421,72.896096,0.015363,-0.002844,1.033508,0.000001,0.000713,-0.000043,0,2015-08-21 01:42:10
619,35.35,26.88,26.04,61.53,1021.81,359.22,359.86,260.02,-3.321352,24.828162,72.887645,0.015322,-0.002852,1.033405,0.000292,-0.001235,-0.000275,0,2015-08-21 01:42:21
620,35.32,26.88,26.04,61.52,1021.81,359.29,359.86,260.44,-3.071720,24.825748,72.819975,0.015283,-0.002698,1.033470,0.000293,0.000807,-0.000249,0,2015-08-21 01:42:30
621,35.29,26.89,26.04,61.48,1021.81,359.15,359.85,260.87,-2.955087,24.974154,72.989306,0.015390,-0.002702,1.033525,0.000025,-0.000559,-0.000017,0,2015-08-21 01:42:40
622,35.33,26.88,26.04,61.61,1021.82,359.14,359.85,260.23,-3.254087,24.874953,72.970615,0.015493,-0.002912,1.033376,0.000053,0.000076,-0.000264,0,2015-08-21 01:42:51
623,35.33,26.88,26.05,61.52,1021.78,359.16,359.84,260.36,-3.163667,25.142016,73.191833,0.015486,-0.002953,1.033500,-0.000101,0.000130,-0.000107,0,2015-08-21 01:43:00
624,35.31,26.90,26.05,61.44,1021.79,359.11,359.84,260.65,-3.055052,24.991211,73.248709,0.015439,-0.002876,1.033441,0.000249,-0.001336,-0.000173,0,2015-08-21 01:43:10
625,35.35,26.90,26.05,61.48,1021.79,359.15,359.85,260.33,-3.194358,24.883538,73.605798,0.015483,-0.002862,1.033336,0.000056,0.001879,0.000056,0,2015-08-21 01:43:21
626,35.35,26.91,26.05,61.64,1021.79,359.14,359.85,260.82,-2.919856,24.923906,73.710302,0.015361,-0.002800,1.033360,0.000121,-0.000885,0.000008,0,2015-08-21 01:43:30
627,35.31,26.91,26.05,61.55,1021.79,359.08,359.84,260.81,-2.977409,24.870958,73.342497,0.015407,-0.002921,1.033262,0.000085,-0.002970,0.000032,0,2015-08-21 01:43:40
628,35.26,26.91,26.06,61.53,1021.77,359.18,359.84,261.13,-2.786622,24.890611,73.115149,0.015437,-0.002916,1.033340,0.000068,0.001062,0.000059,0,2015-08-21 01:43:51
629,35.29,26.90,26.06,61.63,1021.78,359.13,359.85,260.49,-3.205667,25.097928,72.959513,0.015428,-0.002801,1.033288,0.000230,-0.000216,0.000023,0,2015-08-21 01:44:00
630,35.35,26.92,26.06,61.69,1021.77,359.14,359.84,259.87,-3.465663,25.061175,73.302431,0.015455,-0.002901,1.033444,0.000032,-0.001230,0.000153,0,2015-08-21 01:44:11
631,35.38,26.90,26.06,61.66,1021.77,359.15,359.85,259.83,-3.371827,24.962948,73.114653,0.015394,-0.002851,1.033358,0.000105,-0.000708,0.000135,0,2015-08-21 01:44:21
632,35.29,26.91,26.06,61.57,1021.76,359.23,359.85,260.86,-2.957337,24.978320,73.009363,0.015521,-0.003094,1.033324,0.000185,0.001464,-0.000128,0,2015-08-21 01:44:30
633,35.39,26.89,26.07,61.63,1021.76,359.16,359.85,260.29,-3.222104,25.011709,72.928001,0.015388,-0.002887,1.033419,-0.000273,-0.001431,-0.000069,0,2015-08-21 01:44:41
634,35.31,26.91,26.07,61.76,1021.77,359.17,359.83,260.53,-3.137482,24.916087,73.054094,0.015558,-0.002876,1.033427,-0.000299,0.000475,0.000357,0,2015-08-21 01:44:50
635,35.27,26.92,26.07,61.55,1021.73,359.21,359.83,260.29,-3.200942,24.834043,73.151821,0.015426,-0.002862,1.033410,-0.000431,-0.000622,0.000321,0,2015-08-21 01:45:00
636,35.38,26.92,26.07,61.59,1021.75,359.15,359.82,260.35,-3.136245,24.723340,72.879790,0.015600,-0.002942,1.033381,-0.000324,-0.000989,0.000270,0,2015-08-21 01:45:11
637,35.42,26.92,26.07,61.71,1021.74,359.14,359.82,260.87,-2.908074,24.872280,72.941817,0.015450,-0.002903,1.033349,-0.000076,-0.001210,0.000073,0,2015-08-21 01:45:20
638,35.35,26.93,26.07,61.71,1021.74,359.14,359.82,260.94,-2.952914,24.997737,73.012993,0.015447,-0.002971,1.033405,-0.000310,-0.000982,0.000354,0,2015-08-21 01:45:30
639,35.42,26.93,26.07,61.63,1021.75,359.12,359.81,260.40,-3.178849,25.007998,73.076007,0.015504,-0.002922,1.033296,-0.000457,-0.000983,0.000315,0,2015-08-21 01:45:41
640,35.32,26.93,26.07,61.66,1021.75,359.10,359.85,259.86,-3.428162,24.804624,73.252593,0.015419,-0.002923,1.033421,-0.000057,-0.002074,0.000272,0,2015-08-21 01:45:50
641,35.35,26.93,26.08,61.59,1021.76,359.07,359.82,259.84,-3.355841,24.725145,72.944608,0.015385,-0.002815,1.033365,-0.000439,-0.001291,0.000315,0,2015-08-21 01:46:00
642,35.43,26.94,26.08,61.68,1021.76,359.12,359.83,260.14,-3.252425,24.849502,72.913024,0.015410,-0.002934,1.033450,-0.000150,-0.001501,0.000052,0,2015-08-21 01:46:11
643,35.41,26.93,26.08,61.75,1021.74,359.10,359.84,260.15,-3.284253,24.949507,72.972590,0.015292,-0.002779,1.033474,-0.000052,-0.001147,0.000105,0,2015-08-21 01:46:21
644,35.37,26.94,26.09,61.64,1021.75,359.14,359.84,260.27,-3.214636,25.090708,73.057280,0.015470,-0.002643,1.033442,-0.000075,0.001712,0.000052,0,2015-08-21 01:46:30
645,35.37,26.95,26.09,61.70,1021.74,359.14,359.85,260.35,-3.211093,24.918242,73.106278,0.015430,-0.002889,1.033456,0.000107,-0.001538,0.000015,0,2015-08-21 01:46:41
646,35.40,26.97,26.09,61.61,1021.74,359.17,359.84,260.61,-3.027923,24.741032,73.069498,0.015477,-0.002851,1.033421,0.000088,-0.000281,0.000107,0,2015-08-21 01:46:50
647,35.40,26.96,26.09,61.77,1021.73,359.18,359.85,260.93,-2.878903,24.780070,73.341326,0.015412,-0.002994,1.033537,0.000100,0.000686,-0.000103,0,2015-08-21 01:47:00
648,35.35,26.94,26.09,61.89,1021.72,359.13,359.85,260.76,-2.955947,24.979412,73.242207,0.015470,-0.002797,1.033608,-0.000027,0.001000,-0.000096,0,2015-08-21 01:47:11
649,35.41,26.97,26.10,61.77,1021.73,359.13,359.84,260.81,-3.011452,24.739862,72.765796,0.015563,-0.002840,1.033362,0.000110,-0.001115,0.000105,0,2015-08-21 01:47:21
650,35.42,26.95,26.10,61.60,1021.74,359.14,359.84,260.35,-3.145503,24.662611,72.853305,0.015521,-0.002812,1.033390,0.000098,-0.000561,-0.000193,0,2015-08-21 01:47:30
651,35.37,26.97,26.10,61.72,1021.74,359.09,359.85,260.00,-3.289694,24.771523,72.789644,0.015409,-0.002752,1.033297,0.000113,-0.003305,-0.000148,0,2015-08-21 01:47:41
652,35.37,26.97,26.10,61.64,1021.71,359.06,359.83,260.06,-3.288627,24.871607,72.939477,0.015406,-0.002874,1.033408,0.000127,-0.000363,0.000181,0,2015-08-21 01:47:50
653,35.43,26.99,26.11,61.70,1021.69,359.17,359.84,260.43,-3.130114,24.920890,72.664358,0.015587,-0.002837,1.033265,0.000048,-0.001519,-0.000013,0,2015-08-21 01:48:00
654,35.41,26.97,26.11,61.73,1021.74,359.09,359.83,260.07,-3.356696,24.876679,72.634223,0.015424,-0.002887,1.033501,-0.000132,0.001018,0.000055,0,2015-08-21 01:48:11
655,35.32,26.97,26.11,61.68,1021.72,359.12,359.82,260.19,-3.251357,25.059941,72.901898,0.015432,-0.002806,1.033488,-0.000456,-0.000451,0.000374,0,2015-08-21 01:48:21
656,35.44,26.98,26.11,61.78,1021.72,359.04,359.83,260.16,-3.286561,25.056755,72.978289,0.015483,-0.002894,1.033442,-0.000376,-0.000882,0.000199,0,2015-08-21 01:48:30
657,35.39,26.99,26.11,61.80,1021.71,359.10,359.84,260.30,-3.238027,24.947912,72.827675,0.015478,-0.002666,1.033493,-0.000013,0.000426,0.000288,0,2015-08-21 01:48:41
658,35.41,26.98,26.12,61.61,1021.70,359.14,359.84,260.51,-3.093924,24.940947,72.747291,0.015526,-0.002729,1.033385,-0.000240,-0.002446,-0.000008,0,2015-08-21 01:48:50
659,35.40,26.98,26.12,61.80,1021.71,359.14,359.83,260.67,-3.079928,25.374801,72.780043,0.015607,-0.002815,1.033479,-0.000241,0.000085,-0.000299,0,2015-08-21 01:49:00
660,35.41,26.99,26.12,61.82,1021.72,359.14,359.84,260.51,-3.171159,25.091194,72.728641,0.015396,-0.002795,1.033509,-0.000067,0.000517,0.000022,0,2015-08-21 01:49:11
661,35.41,26.98,26.12,61.79,1021.72,359.09,359.85,260.81,-3.029407,25.203102,72.600226,0.015495,-0.002835,1.033354,0.000155,-0.001195,-0.000471,0,2015-08-21 01:49:20
662,35.48,26.99,26.13,61.80,1021.70,359.24,359.86,260.40,-3.194712,25.114099,72.675837,0.015491,-0.002743,1.033485,0.000051,0.001507,-0.000020,0,2015-08-21 01:49:30
663,35.48,26.99,26.13,61.79,1021.70,359.22,359.84,260.54,-3.165734,25.182744,72.827448,0.015398,-0.002670,1.033405,0.000020,-0.000158,0.000035,0,2015-08-21 01:49:41
664,35.49,26.99,26.13,61.86,1021.70,359.14,359.83,260.47,-3.167960,25.157528,72.819010,0.015540,-0.002663,1.033442,-0.000289,-0.000363,0.000092,0,2015-08-21 01:49:50
665,35.44,26.99,26.14,61.76,1021.69,359.16,359.84,260.38,-3.210401,25.153998,72.673643,0.015457,-0.002628,1.033412,-0.000140,-0.000489,0.000040,0,2015-08-21 01:50:00
666,35.44,26.99,26.14,62.01,1021.70,359.12,359.85,260.76,-2.985997,25.074812,72.860435,0.015358,-0.002731,1.033501,0.000072,-0.000293,0.000054,0,2015-08-21 01:50:11
667,35.44,27.00,26.14,61.90,1021.68,359.07,359.86,260.85,-3.028207,25.066933,72.853340,0.015354,-0.002848,1.033394,0.000265,0.000736,-0.000044,0,2015-08-21 01:50:20
668,35.48,26.99,26.15,61.80,1021.67,359.11,359.83,260.30,-3.252595,25.015774,72.659110,0.015405,-0.002922,1.033498,0.000144,-0.001477,0.000122,0,2015-08-21 01:50:31
669,35.50,27.01,26.15,61.90,1021.68,359.14,359.85,260.51,-3.055233,24.687448,72.721357,0.015455,-0.002786,1.033439,0.000119,0.000689,0.000047,0,2015-08-21 01:50:41
670,35.47,27.00,26.15,61.73,1021.67,359.10,359.84,261.11,-2.844232,24.949843,72.654252,0.015359,-0.002797,1.033414,-0.000363,0.001139,-0.000002,0,2015-08-21 01:50:50
671,35.49,27.00,26.16,61.76,1021.68,359.12,359.82,260.90,-2.963424,25.035143,72.667313,0.015485,-0.002690,1.033460,-0.000030,0.000360,0.000143,0,2015-08-21 01:51:01
672,35.51,27.01,26.16,61.80,1021.67,359.18,359.83,260.55,-3.086199,25.043691,72.754133,0.015552,-0.002834,1.033588,-0.000223,0.002760,-0.000028,0,2015-08-21 01:51:11
673,35.48,27.00,26.16,61.84,1021.69,359.18,359.84,260.15,-3.306120,24.868455,72.952675,0.015377,-0.002933,1.033408,0.000017,0.000579,0.000101,0,2015-08-21 01:51:20
674,35.46,27.01,26.16,61.91,1021.70,359.12,359.83,260.52,-3.163220,25.285095,72.755800,0.015495,-0.002806,1.033488,-0.000095,-0.000472,0.000208,0,2015-08-21 01:51:31
675,35.47,27.02,26.16,61.69,1021.68,359.14,359.83,260.56,-3.145739,25.165589,72.593635,0.015481,-0.002704,1.033595,-0.000177,-0.001150,0.000240,0,2015-08-21 01:51:41
676,35.49,27.01,26.15,61.80,1021.68,359.10,359.85,260.31,-3.210432,25.078125,72.639366,0.015447,-0.002882,1.033518,-0.000029,-0.000199,-0.000030,0,2015-08-21 01:51:50
677,35.47,27.01,26.15,61.83,1021.69,359.18,359.85,260.11,-3.335845,24.980344,72.637024,0.015487,-0.002778,1.033519,0.000071,-0.001368,-0.000134,0,2015-08-21 01:52:01
678,35.50,27.02,26.15,61.80,1021.69,359.13,359.86,259.64,-3.604757,25.442312,72.781717,0.015477,-0.002883,1.033500,0.000146,0.000169,-0.000027,0,2015-08-21 01:52:10
679,35.47,27.01,26.14,61.65,1021.70,359.17,359.85,259.51,-3.676004,25.437376,72.700373,0.015483,-0.002878,1.033524,0.000149,0.000674,-0.000049,0,2015-08-21 01:52:20
680,35.44,27.01,26.14,61.64,1021.69,359.14,359.85,259.73,-3.555893,25.425430,72.745957,0.015470,-0.002912,1.033549,0.000138,-0.000598,-0.000323,0,2015-08-21 01:52:31
681,35.45,26.99,26.13,61.68,1021.68,359.08,359.85,259.83,-3.479862,25.200107,72.723595,0.015361,-0.002846,1.033374,0.000264,0.000536,-0.000181,0,2015-08-21 01:52:40
682,35.44,26.99,26.13,61.63,1021.69,359.19,359.86,260.20,-3.248299,24.977759,72.409130,0.015270,-0.002837,1.033652,0.000034,0.000678,-0.000117,0,2015-08-21 01:52:50
683,35.40,27.00,26.13,61.51,1021.69,359.14,359.85,260.22,-3.284387,25.205749,72.636410,0.015400,-0.002934,1.033523,0.000193,-0.002433,-0.000262,0,2015-08-21 01:53:01
684,35.46,26.99,26.12,61.66,1021.68,359.17,359.85,260.12,-3.374170,25.338471,72.413460,0.015390,-0.002789,1.033570,0.000021,-0.001472,-0.000163,0,2015-08-21 01:53:10
685,35.38,26.99,26.12,61.72,1021.69,359.17,359.84,260.10,-3.363500,25.117951,72.454479,0.015396,-0.002872,1.033481,-0.000210,-0.001429,-0.000107,0,2015-08-21 01:53:20
686,35.38,26.98,26.11,61.49,1021.66,359.13,359.84,259.99,-3.346666,24.987001,72.661581,0.015468,-0.002930,1.033504,-0.000050,-0.000851,-0.000306,0,2015-08-21 01:53:31
687,35.42,26.96,26.11,61.57,1021.68,359.23,359.84,260.00,-3.401124,25.060612,72.603976,0.015417,-0.002866,1.033428,-0.000010,0.001419,-0.000140,0,2015-08-21 01:53:40
688,35.42,26.96,26.10,61.50,1021.67,359.18,359.85,260.13,-3.307724,25.139106,72.597880,0.015516,-0.002796,1.033346,0.000124,0.000231,-0.000303,0,2015-08-21 01:53:51
689,35.37,26.94,26.09,61.49,1021.67,359.15,359.85,260.22,-3.337924,25.184196,72.611000,0.015379,-0.002978,1.033604,0.000057,0.000028,0.000048,0,2015-08-21 01:54:01
690,35.40,26.95,26.09,61.36,1021.67,359.08,359.86,259.84,-3.443046,25.145102,72.732953,0.015323,-0.002731,1.033573,0.000164,-0.001275,-0.000194,0,2015-08-21 01:54:10
691,35.41,26.95,26.08,61.36,1021.68,359.21,359.88,259.63,-3.564143,24.957706,72.594476,0.015332,-0.002838,1.033686,0.000527,-0.000900,-0.000151,0,2015-08-21 01:54:21
692,35.35,26.94,26.08,61.44,1021.69,359.11,359.86,259.49,-3.561274,25.130698,72.523806,0.015271,-0.002933,1.033588,0.000128,-0.000622,-0.000131,0,2015-08-21 01:54:30
693,35.34,26.96,26.07,61.49,1021.68,359.20,359.85,259.82,-3.473207,24.937642,72.713485,0.015359,-0.002933,1.033501,0.000058,0.000711,0.000042,0,2015-08-21 01:54:40
694,35.35,26.94,26.06,61.50,1021.68,359.13,359.85,259.61,-3.516046,24.932139,72.862472,0.015249,-0.002784,1.033673,0.000368,0.000067,-0.000178,0,2015-08-21 01:54:51
695,35.37,26.92,26.06,61.47,1021.69,359.11,359.87,259.48,-3.581580,25.060142,73.115078,0.015363,-0.002844,1.033607,0.000336,0.001594,-0.000367,0,2015-08-21 01:55:00
696,35.35,26.92,26.05,61.53,1021.68,359.24,359.88,259.38,-3.588119,24.936985,73.126789,0.015252,-0.002878,1.033579,0.000462,-0.000932,-0.000377,0,2015-08-21 01:55:10
697,35.35,26.91,26.05,61.23,1021.66,359.14,359.87,259.45,-3.638837,24.974242,73.050784,0.015324,-0.002761,1.033586,0.000315,-0.000828,-0.000421,0,2015-08-21 01:55:21
698,35.35,26.89,26.04,61.44,1021.67,359.15,359.86,259.45,-3.581291,24.928142,73.086651,0.015368,-0.002894,1.033506,0.000398,0.000205,-0.000378,0,2015-08-21 01:55:30
699,35.36,26.88,26.04,61.44,1021.64,359.16,359.86,260.01,-3.326813,24.976549,72.929116,0.015236,-0.002697,1.033560,0.000235,-0.000480,-0.000211,0,2015-08-21 01:55:40
700,35.32,26.89,26.03,61.27,1021.64,359.19,359.87,260.02,-3.352058,24.802388,73.122447,0.015243,-0.002712,1.033661,0.000201,-0.001159,-0.000238,0,2015-08-21 01:55:51
701,35.33,26.88,26.03,61.52,1021.64,359.21,359.85,259.60,-3.481421,24.660199,73.113935,0.015306,-0.002718,1.033677,0.000235,-0.000235,-0.000005,0,2015-08-21 01:56:00
702,35.35,26.89,26.02,61.28,1021.64,359.12,359.87,259.31,-3.679438,24.892701,72.997986,0.015285,-0.002747,1.033586,0.000543,-0.003116,-0.000249,0,2015-08-21 01:56:10
703,35.38,26.89,26.02,61.35,1021.64,359.19,359.86,258.73,-3.921209,24.866562,73.137561,0.015287,-0.002792,1.033488,0.000224,0.002252,-0.000183,0,2015-08-21 01:56:21
704,35.38,26.88,26.01,61.28,1021.66,359.18,359.86,258.54,-3.966462,24.753698,73.181157,0.015435,-0.003021,1.033473,0.000344,0.000964,-0.000127,0,2015-08-21 01:56:30
705,35.28,26.86,26.01,61.38,1021.67,359.14,359.85,259.52,-3.518680,24.813645,73.008982,0.015298,-0.002869,1.033677,0.000203,-0.001029,-0.000274,0,2015-08-21 01:56:40
706,35.26,26.86,26.00,61.40,1021.65,359.20,359.86,259.28,-3.618724,24.662867,73.031487,0.015322,-0.002851,1.033576,0.000212,-0.001123,-0.000296,0,2015-08-21 01:56:51
707,35.36,26.85,25.99,61.30,1021.63,359.16,359.85,259.43,-3.557178,24.643905,73.168554,0.015152,-0.002998,1.033600,0.000342,-0.003226,-0.000205,0,2015-08-21 01:57:00
708,35.33,26.84,25.99,61.39,1021.63,359.15,359.86,259.49,-3.548524,24.909316,73.174885,0.015309,-0.002677,1.033638,0.000282,-0.000467,-0.000374,0,2015-08-21 01:57:10
709,35.31,26.84,25.98,61.28,1021.64,359.15,359.87,259.74,-3.537247,25.156975,72.924787,0.015257,-0.002938,1.033466,0.000376,0.000770,-0.000215,0,2015-08-21 01:57:21
710,35.29,26.86,25.98,61.25,1021.65,359.13,359.84,259.87,-3.376215,24.816079,72.694395,0.015350,-0.002996,1.033584,0.000066,-0.001603,-0.000079,0,2015-08-21 01:57:30
711,35.30,26.82,25.97,61.31,1021.63,359.18,359.84,260.03,-3.320743,24.776648,72.713422,0.015221,-0.002887,1.033511,0.000106,0.002885,-0.000207,0,2015-08-21 01:57:40
712,35.30,26.83,25.97,61.11,1021.64,359.09,359.83,259.91,-3.365811,24.816250,72.560196,0.015336,-0.003042,1.033259,0.000041,-0.001399,-0.000136,0,2015-08-21 01:57:51
713,35.32,26.80,25.96,61.19,1021.64,359.19,359.84,259.29,-3.695529,24.815970,72.736608,0.015365,-0.002864,1.033530,-0.000066,-0.000984,-0.000006,0,2015-08-21 01:58:00
714,35.23,26.81,25.95,61.12,1021.64,359.15,359.83,259.79,-3.391307,24.948856,73.316444,0.015271,-0.003034,1.033530,-0.000082,-0.001386,0.000029,0,2015-08-21 01:58:10
715,35.18,26.81,25.95,61.11,1021.65,359.09,359.83,259.93,-3.449510,25.260719,73.178935,0.015364,-0.003006,1.033606,-0.000185,-0.001405,0.000210,0,2015-08-21 01:58:21
716,35.26,26.80,25.94,61.28,1021.66,359.13,359.82,259.22,-3.810643,25.264388,73.339660,0.015146,-0.002781,1.033627,-0.000459,0.000274,0.000308,0,2015-08-21 01:58:31
717,35.22,26.78,25.93,61.22,1021.68,359.09,359.82,259.78,-3.457519,25.227608,73.176794,0.015236,-0.003019,1.033600,-0.000303,-0.003576,0.000148,0,2015-08-21 01:58:40
718,35.23,26.78,25.92,61.24,1021.67,359.09,359.83,259.91,-3.448904,25.203190,73.353884,0.015184,-0.002971,1.033541,-0.000127,0.000516,0.000116,0,2015-08-21 01:58:51
719,35.10,26.77,25.92,61.04,1021.67,359.13,359.82,260.04,-3.421890,25.412335,73.455102,0.015291,-0.002994,1.033575,-0.000233,-0.000964,0.000243,0,2015-08-21 01:59:00
720,35.13,26.77,25.91,61.00,1021.67,359.15,359.83,259.82,-3.480948,25.242699,73.052278,0.015092,-0.002944,1.033445,-0.000206,-0.003491,-0.000053,0,2015-08-21 01:59:10
